thorax_q1,thorax_q2,thorax_q3,thorax_q4,thorax_ax,thorax_ay,thorax_az,thorax_gx,thorax_gy,thorax_gz,thorax_mx,thorax_my,thorax_mz,thorax_barometer,thorax_linAcc_x,thorax_linAcc_y,thorax_linAcc_z,thorax_altitude,humerus_q1,humerus_q2,humerus_q3,humerus_q4,humerus_ax,humerus_ay,humerus_az,humerus_gx,humerus_gy,humerus_gz,humerus_mx,humerus_my,humerus_mz,humerus_barometer,humerus_linAcc_x,humerus_linAcc_y,humerus_linAcc_z,humerus_altitude,radius_q1,radius_q2,radius_q3,radius_q4,radius_ax,radius_ay,radius_az,radius_gx,radius_gy,radius_gz,radius_mx,radius_my,radius_mz,radius_barometer,radius_linAcc_x,radius_linAcc_y,radius_linAcc_z,radius_altitude,
0.5081002,+1.0000000,+0.0000000,+0.0000000,+0.0000000,0,0,0,0,0,0,0,0,0,0.0,0.0,0.0,0.0,0.0,+1.0000000,+0.0000000,+0.0000000,+0.0000000,0,0,0,0,0,0,0,0,0,0.0,0.0,0.0,0.0,0.0,+1.0000000,+0.0000000,+0.0000000,+0.0000000,0,0,0,0,0,0,0,0,0,0.0,0.0,0.0,0.0,0.0,
0.5211707,+0.1146970,+0.0887683,+0.0633858,-0.9873941,0,0,0,0,0,0,0,0,0,0.0,0.0,0.0,0.0,0.0,-0.6281928,+0.7712916,+0.0080791,+0.1020680,0,0,0,0,0,0,0,0,0,0.0,0.0,0.0,0.0,0.0,+0.5314311,-0.7474203,-0.0018438,+0.3986735,0,0,0,0,0,0,0,0,0,0.0,0.0,0.0,0.0,0.0,
0.5222037,+0.1146970,+0.0887683,+0.0633858,-0.9873941,0,0,0,0,0,0,0,0,0,0.0,0.0,0.0,0.0,0.0,-0.6281928,+0.7712916,+0.0080791,+0.1020680,0,0,0,0,0,0,0,0,0,0.0,0.0,0.0,0.0,0.0,+0.5314311,-0.7474203,-0.0018438,+0.3986735,0,0,0,0,0,0,0,0,0,0.0,0.0,0.0,0.0,0.0,
0.5304261,+0.1146970,+0.0887683,+0.0633858,-0.9873941,0,0,0,0,0,0,0,0,0,0.0,0.0,0.0,0.0,0.0,-0.6281928,+0.7712916,+0.0080791,+0.1020680,0,0,0,0,0,0,0,0,0,0.0,0.0,0.0,0.0,0.0,+0.5314311,-0.7474203,-0.0018438,+0.3986735,0,0,0,0,0,0,0,0,0,0.0,0.0,0.0,0.0,0.0,
0.5411191,+0.1146970,+0.0887683,+0.0633858,-0.9873941,0,0,0,0,0,0,0,0,0,0.0,0.0,0.0,0.0,0.0,-0.6281928,+0.7712916,+0.0080791,+0.1020680,0,0,0,0,0,0,0,0,0,0.0,0.0,0.0,0.0,0.0,+0.5314311,-0.7474203,-0.0018438,+0.3986735,0,0,0,0,0,0,0,0,0,0.0,0.0,0.0,0.0,0.0,
0.5513963,+0.1146970,+0.0887683,+0.0633858,-0.9873941,0,0,0,0,0,0,0,0,0,0.0,0.0,0.0,0.0,0.0,-0.6281928,+0.7712916,+0.0080791,+0.1020680,0,0,0,0,0,0,0,0,0,0.0,0.0,0.0,0.0,0.0,+0.5314311,-0.7474203,-0.0018438,+0.3986735,0,0,0,0,0,0,0,0,0,0.0,0.0,0.0,0.0,0.0,
0.555235,+0.1146970,+0.0887683,+0.0633858,-0.9873941,0,0,0,0,0,0,0,0,0,0.0,0.0,0.0,0.0,0.0,-0.6281928,+0.7712916,+0.0080791,+0.1020680,0,0,0,0,0,0,0,0,0,0.0,0.0,0.0,0.0,0.0,+0.5314311,-0.7474203,-0.0018438,+0.3986735,0,0,0,0,0,0,0,0,0,0.0,0.0,0.0,0.0,0.0,
0.5711984,+0.1146970,+0.0887683,+0.0633858,-0.9873941,0,0,0,0,0,0,0,0,0,0.0,0.0,0.0,0.0,0.0,-0.6281928,+0.7712916,+0.0080791,+0.1020680,0,0,0,0,0,0,0,0,0,0.0,0.0,0.0,0.0,0.0,+0.5314311,-0.7474203,-0.0018438,+0.3986735,0,0,0,0,0,0,0,0,0,0.0,0.0,0.0,0.0,0.0,
0.581257,+0.1146970,+0.0887683,+0.0633858,-0.9873941,0,0,0,0,0,0,0,0,0,0.0,0.0,0.0,0.0,0.0,-0.6281928,+0.7712916,+0.0080791,+0.1020680,0,0,0,0,0,0,0,0,0,0.0,0.0,0.0,0.0,0.0,+0.5314311,-0.7474203,-0.0018438,+0.3986735,0,0,0,0,0,0,0,0,0,0.0,0.0,0.0,0.0,0.0,
0.5912711,+0.1146970,+0.0887683,+0.0633858,-0.9873941,0,0,0,0,0,0,0,0,0,0.0,0.0,0.0,0.0,0.0,-0.6281928,+0.7712916,+0.0080791,+0.1020680,0,0,0,0,0,0,0,0,0,0.0,0.0,0.0,0.0,0.0,+0.5314311,-0.7474203,-0.0018438,+0.3986735,0,0,0,0,0,0,0,0,0,0.0,0.0,0.0,0.0,0.0,
0.6012357,+0.1146970,+0.0887683,+0.0633858,-0.9873941,0,0,0,0,0,0,0,0,0,0.0,0.0,0.0,0.0,0.0,-0.6281928,+0.7712916,+0.0080791,+0.1020680,0,0,0,0,0,0,0,0,0,0.0,0.0,0.0,0.0,0.0,+0.5314311,-0.7474203,-0.0018438,+0.3986735,0,0,0,0,0,0,0,0,0,0.0,0.0,0.0,0.0,0.0,
0.6113733,+1.0000000,+0.0000000,+0.0000000,+0.0000000,0,0,0,0,0,0,0,0,0,0.0,0.0,0.0,0.0,0.0,+1.0000000,+0.0000000,+0.0000000,+0.0000000,0,0,0,0,0,0,0,0,0,0.0,0.0,0.0,0.0,0.0,+1.0000000,+0.0000000,+0.0000000,+0.0000000,0,0,0,0,0,0,0,0,0,0.0,0.0,0.0,0.0,0.0,
0.6212894,+0.7278578,+0.6491535,+0.2209584,+0.0002721,0,0,0,0,0,0,0,0,0,0.0,0.0,0.0,0.0,0.0,+0.8516364,+0.4900767,+0.1844420,+0.0228342,0,0,0,0,0,0,0,0,0,0.0,0.0,0.0,0.0,0.0,+0.8161492,+0.5295870,-0.2309467,-0.0100868,0,0,0,0,0,0,0,0,0,0.0,0.0,0.0,0.0,0.0,
0.6314768,+0.7281512,+0.6490020,+0.2204355,+0.0006845,0,0,0,0,0,0,0,0,0,0.0,0.0,0.0,0.0,0.0,+0.8491397,+0.4916847,+0.1899002,+0.0338487,0,0,0,0,0,0,0,0,0,0.0,0.0,0.0,0.0,0.0,+0.8114319,+0.5400921,-0.2228569,-0.0146081,0,0,0,0,0,0,0,0,0,0.0,0.0,0.0,0.0,0.0,
0.6385555,+0.7289535,+0.6483846,+0.2195881,+0.0022976,0,0,0,0,0,0,0,0,0,0.0,0.0,0.0,0.0,0.0,+0.8424554,+0.4951988,+0.2050368,+0.0548339,0,0,0,0,0,0,0,0,0,0.0,0.0,0.0,0.0,0.0,+0.8022944,+0.5600378,-0.2053197,-0.0229184,0,0,0,0,0,0,0,0,0,0.0,0.0,0.0,0.0,0.0,
0.6514985,+0.7296448,+0.6477329,+0.2192015,+0.0033721,0,0,0,0,0,0,0,0,0,0.0,0.0,0.0,0.0,0.0,+0.8380336,+0.4970744,+0.2152724,+0.0653810,0,0,0,0,0,0,0,0,0,0.0,0.0,0.0,0.0,0.0,+0.7977572,+0.5697780,-0.1955426,-0.0264516,0,0,0,0,0,0,0,0,0,0.0,0.0,0.0,0.0,0.0,
0.6615757,+0.7304702,+0.6469362,+0.2187829,+0.0045641,0,0,0,0,0,0,0,0,0,0.0,0.0,0.0,0.0,0.0,+0.8334264,+0.4984990,+0.2259106,+0.0765745,0,0,0,0,0,0,0,0,0,0.0,0.0,0.0,0.0,0.0,+0.7931194,+0.5794947,-0.1851585,-0.0293940,0,0,0,0,0,0,0,0,0,0.0,0.0,0.0,0.0,0.0,
0.6715985,+0.7319084,+0.6454504,+0.2182826,+0.0075272,0,0,0,0,0,0,0,0,0,0.0,0.0,0.0,0.0,0.0,+0.8251587,+0.4982583,+0.2467228,+0.0998989,0,0,0,0,0,0,0,0,0,0.0,0.0,0.0,0.0,0.0,+0.7837139,+0.5985168,-0.1627762,-0.0327696,0,0,0,0,0,0,0,0,0,0.0,0.0,0.0,0.0,0.0,
0.6815042,+0.7324755,+0.6448221,+0.2181676,+0.0093262,0,0,0,0,0,0,0,0,0,0.0,0.0,0.0,0.0,0.0,+0.8217652,+0.4961792,+0.2566793,+0.1123556,0,0,0,0,0,0,0,0,0,0.0,0.0,0.0,0.0,0.0,+0.7793937,+0.6074730,-0.1498794,-0.0325309,0,0,0,0,0,0,0,0,0,0.0,0.0,0.0,0.0,0.0,
0.6920738,+0.7334352,+0.6437722,+0.2178345,+0.0133482,0,0,0,0,0,0,0,0,0,0.0,0.0,0.0,0.0,0.0,+0.8132175,+0.4940321,+0.2753484,+0.1370864,0,0,0,0,0,0,0,0,0,0.0,0.0,0.0,0.0,0.0,+0.7718129,+0.6239630,-0.1194368,-0.0266445,0,0,0,0,0,0,0,0,0,0.0,0.0,0.0,0.0,0.0,
0.70207,+0.7339615,+0.6432509,+0.2174681,+0.0153779,0,0,0,0,0,0,0,0,0,0.0,0.0,0.0,0.0,0.0,+0.8085809,+0.4939481,+0.2831922,+0.1483723,0,0,0,0,0,0,0,0,0,0.0,0.0,0.0,0.0,0.0,+0.7684647,+0.6311071,-0.1033916,-0.0218147,0,0,0,0,0,0,0,0,0,0.0,0.0,0.0,0.0,0.0,
0.7121595,+0.7349267,+0.6422850,+0.2166989,+0.0198558,0,0,0,0,0,0,0,0,0,0.0,0.0,0.0,0.0,0.0,+0.7992593,+0.4953488,+0.2963561,+0.1672937,0,0,0,0,0,0,0,0,0,0.0,0.0,0.0,0.0,0.0,+0.7624424,+0.6428599,-0.0728611,-0.0101995,0,0,0,0,0,0,0,0,0,0.0,0.0,0.0,0.0,0.0,
0.7219864,+0.7352825,+0.6418970,+0.2163984,+0.0223512,0,0,0,0,0,0,0,0,0,0.0,0.0,0.0,0.0,0.0,+0.7940044,+0.4970317,+0.3030343,+0.1751759,0,0,0,0,0,0,0,0,0,0.0,0.0,0.0,0.0,0.0,+0.7593833,+0.6479787,-0.0587165,-0.0036129,0,0,0,0,0,0,0,0,0,0.0,0.0,0.0,0.0,0.0,
0.7315874,+0.7355225,+0.6416117,+0.2161486,+0.0249166,0,0,0,0,0,0,0,0,0,0.0,0.0,0.0,0.0,0.0,+0.7881957,+0.4987947,+0.3105935,+0.1829838,0,0,0,0,0,0,0,0,0,0.0,0.0,0.0,0.0,0.0,+0.7563211,+0.6525488,-0.0463971,+0.0024117,0,0,0,0,0,0,0,0,0,0.0,0.0,0.0,0.0,0.0,
0.7416742,+0.7358376,+0.6412368,+0.2155547,+0.0299083,0,0,0,0,0,0,0,0,0,0.0,0.0,0.0,0.0,0.0,+0.7754235,+0.5010784,+0.3285584,+0.1992195,0,0,0,0,0,0,0,0,0,0.0,0.0,0.0,0.0,0.0,+0.7502953,+0.6604313,-0.0269810,+0.0126320,0,0,0,0,0,0,0,0,0,0.0,0.0,0.0,0.0,0.0,
0.7521052,+0.7360961,+0.6409928,+0.2150874,+0.0320636,0,0,0,0,0,0,0,0,0,0.0,0.0,0.0,0.0,0.0,+0.7690275,+0.5018123,+0.3375292,+0.2070151,0,0,0,0,0,0,0,0,0,0.0,0.0,0.0,0.0,0.0,+0.7474729,+0.6637937,-0.0194638,+0.0168327,0,0,0,0,0,0,0,0,0,0.0,0.0,0.0,0.0,0.0,
0.7625357,+0.7363505,+0.6408964,+0.2139335,+0.0356699,0,0,0,0,0,0,0,0,0,0.0,0.0,0.0,0.0,0.0,+0.7575040,+0.5012308,+0.3547901,+0.2215387,0,0,0,0,0,0,0,0,0,0.0,0.0,0.0,0.0,0.0,+0.7428392,+0.6690745,-0.0080173,+0.0215669,0,0,0,0,0,0,0,0,0,0.0,0.0,0.0,0.0,0.0,
0.7725805,+0.7362754,+0.6410809,+0.2133830,+0.0371689,0,0,0,0,0,0,0,0,0,0.0,0.0,0.0,0.0,0.0,+0.7522318,+0.5001883,+0.3631015,+0.2282901,0,0,0,0,0,0,0,0,0,0.0,0.0,0.0,0.0,0.0,+0.7411150,+0.6710095,-0.0043497,+0.0218166,0,0,0,0,0,0,0,0,0,0.0,0.0,0.0,0.0,0.0,
0.7826313,+0.7357391,+0.6418499,+0.2124977,+0.0395166,0,0,0,0,0,0,0,0,0,0.0,0.0,0.0,0.0,0.0,+0.7419339,+0.4982865,+0.3784061,+0.2409430,0,0,0,0,0,0,0,0,0,0.0,0.0,0.0,0.0,0.0,+0.7386997,+0.6737552,-0.0011768,+0.0193707,0,0,0,0,0,0,0,0,0,0.0,0.0,0.0,0.0,0.0,
0.792403,+0.7353773,+0.6423017,+0.2122010,+0.0404898,0,0,0,0,0,0,0,0,0,0.0,0.0,0.0,0.0,0.0,+0.7383963,+0.4980862,+0.3826885,+0.2454191,0,0,0,0,0,0,0,0,0,0.0,0.0,0.0,0.0,0.0,+0.7379633,+0.6746143,-0.0010112,+0.0174560,0,0,0,0,0,0,0,0,0,0.0,0.0,0.0,0.0,0.0,
0.8019963,+0.7348410,+0.6429691,+0.2117350,+0.0420450,0,0,0,0,0,0,0,0,0,0.0,0.0,0.0,0.0,0.0,+0.7341779,+0.5004253,+0.3864709,+0.2473815,0,0,0,0,0,0,0,0,0,0.0,0.0,0.0,0.0,0.0,+0.7369969,+0.6757663,-0.0019077,+0.0131104,0,0,0,0,0,0,0,0,0,0.0,0.0,0.0,0.0,0.0,
0.812597,+0.7346636,+0.6432281,+0.2114720,+0.0425061,0,0,0,0,0,0,0,0,0,0.0,0.0,0.0,0.0,0.0,+0.7332031,+0.5017216,+0.3867315,+0.2472396,0,0,0,0,0,0,0,0,0,0.0,0.0,0.0,0.0,0.0,+0.7366657,+0.6761708,-0.0032021,+0.0103267,0,0,0,0,0,0,0,0,0,0.0,0.0,0.0,0.0,0.0,
0.8224781,+0.7345738,+0.6434282,+0.2111164,+0.0427956,0,0,0,0,0,0,0,0,0,0.0,0.0,0.0,0.0,0.0,+0.7324291,+0.5026744,+0.3869987,+0.2471804,0,0,0,0,0,0,0,0,0,0.0,0.0,0.0,0.0,0.0,+0.7362848,+0.6766152,-0.0055720,+0.0067574,0,0,0,0,0,0,0,0,0,0.0,0.0,0.0,0.0,0.0,
0.8330476,+0.7347630,+0.6435929,+0.2099483,+0.0428170,0,0,0,0,0,0,0,0,0,0.0,0.0,0.0,0.0,0.0,+0.7316617,+0.5059981,+0.3851841,+0.2455001,0,0,0,0,0,0,0,0,0,0.0,0.0,0.0,0.0,0.0,+0.7349224,+0.6780102,-0.0136860,-0.0019830,0,0,0,0,0,0,0,0,0,0.0,0.0,0.0,0.0,0.0,
0.8430882,+0.7350733,+0.6435175,+0.2091531,+0.0425150,0,0,0,0,0,0,0,0,0,0.0,0.0,0.0,0.0,0.0,+0.7317954,+0.5084643,+0.3828865,+0.2435930,0,0,0,0,0,0,0,0,0,0.0,0.0,0.0,0.0,0.0,+0.7339362,+0.6789213,-0.0189382,-0.0066985,0,0,0,0,0,0,0,0,0,0.0,0.0,0.0,0.0,0.0,
0.8531371,+0.7357677,+0.6433920,+0.2073236,+0.0413466,0,0,0,0,0,0,0,0,0,0.0,0.0,0.0,0.0,0.0,+0.7323099,+0.5150177,+0.3765652,+0.2380708,0,0,0,0,0,0,0,0,0,0.0,0.0,0.0,0.0,0.0,+0.7319159,+0.6805990,-0.0292164,-0.0151813,0,0,0,0,0,0,0,0,0,0.0,0.0,0.0,0.0,0.0,
0.8628476,+0.7360420,+0.6434075,+0.2064499,+0.0405890,0,0,0,0,0,0,0,0,0,0.0,0.0,0.0,0.0,0.0,+0.7328632,+0.5187579,+0.3726512,+0.2343778,0,0,0,0,0,0,0,0,0,0.0,0.0,0.0,0.0,0.0,+0.7313702,+0.6809069,-0.0334609,-0.0185430,0,0,0,0,0,0,0,0,0,0.0,0.0,0.0,0.0,0.0,
0.8724015,+0.7363945,+0.6435480,+0.2050439,+0.0390666,0,0,0,0,0,0,0,0,0,0.0,0.0,0.0,0.0,0.0,+0.7342365,+0.5258810,+0.3640165,+0.2276792,0,0,0,0,0,0,0,0,0,0.0,0.0,0.0,0.0,0.0,+0.7304761,+0.6812883,-0.0410286,-0.0238237,0,0,0,0,0,0,0,0,0,0.0,0.0,0.0,0.0,0.0,
0.8830961,+0.7365742,+0.6436073,+0.2043504,+0.0383283,0,0,0,0,0,0,0,0,0,0.0,0.0,0.0,0.0,0.0,+0.7348776,+0.5291304,+0.3601229,+0.2242485,0,0,0,0,0,0,0,0,0,0.0,0.0,0.0,0.0,0.0,+0.7301607,+0.6813498,-0.0442765,-0.0258366,0,0,0,0,0,0,0,0,0,0.0,0.0,0.0,0.0,0.0,
0.8930441,+0.7368438,+0.6435803,+0.2035995,+0.0375878,0,0,0,0,0,0,0,0,0,0.0,0.0,0.0,0.0,0.0,+0.7353840,+0.5323790,+0.3563414,+0.2209157,0,0,0,0,0,0,0,0,0,0.0,0.0,0.0,0.0,0.0,+0.7299891,+0.6812961,-0.0469558,-0.0273266,0,0,0,0,0,0,0,0,0,0.0,0.0,0.0,0.0,0.0,
0.9028081,+0.7374445,+0.6434253,+0.2021224,+0.0364156,0,0,0,0,0,0,0,0,0,0.0,0.0,0.0,0.0,0.0,+0.7358946,+0.5389323,+0.3494655,+0.2142079,0,0,0,0,0,0,0,0,0,0.0,0.0,0.0,0.0,0.0,+0.7298795,+0.6810948,-0.0504148,-0.0290526,0,0,0,0,0,0,0,0,0,0.0,0.0,0.0,0.0,0.0,
0.9127572,+0.7376366,+0.6433896,+0.2015990,+0.0360525,0,0,0,0,0,0,0,0,0,0.0,0.0,0.0,0.0,0.0,+0.7357242,+0.5420027,+0.3467529,+0.2114367,0,0,0,0,0,0,0,0,0,0.0,0.0,0.0,0.0,0.0,+0.7298763,+0.6809753,-0.0516431,-0.0297721,0,0,0,0,0,0,0,0,0,0.0,0.0,0.0,0.0,0.0,
0.9227571,+0.7378259,+0.6433785,+0.2010393,+0.0355011,0,0,0,0,0,0,0,0,0,0.0,0.0,0.0,0.0,0.0,+0.7349139,+0.5469620,+0.3431868,+0.2072608,0,0,0,0,0,0,0,0,0,0.0,0.0,0.0,0.0,0.0,+0.7297916,+0.6805789,-0.0558736,-0.0330873,0,0,0,0,0,0,0,0,0,0.0,0.0,0.0,0.0,0.0,
0.933461,+0.7378792,+0.6433848,+0.2008707,+0.0352329,0,0,0,0,0,0,0,0,0,0.0,0.0,0.0,0.0,0.0,+0.7343802,+0.5489554,+0.3420503,+0.2057552,0,0,0,0,0,0,0,0,0,0.0,0.0,0.0,0.0,0.0,+0.7296078,+0.6803451,-0.0592945,-0.0358775,0,0,0,0,0,0,0,0,0,0.0,0.0,0.0,0.0,0.0,
0.9435532,+0.7380794,+0.6432937,+0.2005345,+0.0346121,0,0,0,0,0,0,0,0,0,0.0,0.0,0.0,0.0,0.0,+0.7330441,+0.5527282,+0.3404393,+0.2030737,0,0,0,0,0,0,0,0,0,0.0,0.0,0.0,0.0,0.0,+0.7289080,+0.6799164,-0.0678575,-0.0424534,0,0,0,0,0,0,0,0,0,0.0,0.0,0.0,0.0,0.0,
0.9535548,+0.7382039,+0.6432245,+0.2003585,+0.0342591,0,0,0,0,0,0,0,0,0,0.0,0.0,0.0,0.0,0.0,+0.7325118,+0.5542198,+0.3399779,+0.2016978,0,0,0,0,0,0,0,0,0,0.0,0.0,0.0,0.0,0.0,+0.7284815,+0.6797386,-0.0721683,-0.0454072,0,0,0,0,0,0,0,0,0,0.0,0.0,0.0,0.0,0.0,
0.9634692,+0.7384812,+0.6430076,+0.2001536,+0.0335468,0,0,0,0,0,0,0,0,0,0.0,0.0,0.0,0.0,0.0,+0.7313854,+0.5567038,+0.3398233,+0.1991893,0,0,0,0,0,0,0,0,0,0.0,0.0,0.0,0.0,0.0,+0.7276623,+0.6795984,-0.0788478,-0.0493627,0,0,0,0,0,0,0,0,0,0.0,0.0,0.0,0.0,0.0,
0.9732882,+0.7385365,+0.6429457,+0.2001979,+0.0332481,0,0,0,0,0,0,0,0,0,0.0,0.0,0.0,0.0,0.0,+0.7308789,+0.5578735,+0.3398993,+0.1976405,0,0,0,0,0,0,0,0,0,0.0,0.0,0.0,0.0,0.0,+0.7272514,+0.6797006,-0.0810377,-0.0504519,0,0,0,0,0,0,0,0,0,0.0,0.0,0.0,0.0,0.0,
0.9838413,+0.7385366,+0.6429004,+0.2003829,+0.0330088,0,0,0,0,0,0,0,0,0,0.0,0.0,0.0,0.0,0.0,+0.7304402,+0.5591859,+0.3397519,+0.1957980,0,0,0,0,0,0,0,0,0,0.0,0.0,0.0,0.0,0.0,+0.7268875,+0.6798230,-0.0827072,-0.0513310,0,0,0,0,0,0,0,0,0,0.0,0.0,0.0,0.0,0.0,
0.9940368,+0.7384630,+0.6428357,+0.2009164,+0.0326697,0,0,0,0,0,0,0,0,0,0.0,0.0,0.0,0.0,0.0,+0.7302775,+0.5617247,+0.3381929,+0.1917963,0,0,0,0,0,0,0,0,0,0.0,0.0,0.0,0.0,0.0,+0.7262530,+0.6799133,-0.0860174,-0.0536229,0,0,0,0,0,0,0,0,0,0.0,0.0,0.0,0.0,0.0,
1.0041365,+0.7384568,+0.6427684,+0.2011768,+0.0325303,0,0,0,0,0,0,0,0,0,0.0,0.0,0.0,0.0,0.0,+0.7304573,+0.5629180,+0.3368982,+0.1898818,0,0,0,0,0,0,0,0,0,0.0,0.0,0.0,0.0,0.0,+0.7258274,+0.6799738,-0.0880835,-0.0552401,0,0,0,0,0,0,0,0,0,0.0,0.0,0.0,0.0,0.0,
1.0138291,+0.7384784,+0.6426384,+0.2015616,+0.0322264,0,0,0,0,0,0,0,0,0,0.0,0.0,0.0,0.0,0.0,+0.7308540,+0.5653424,+0.3339049,+0.1864082,0,0,0,0,0,0,0,0,0,0.0,0.0,0.0,0.0,0.0,+0.7247298,+0.6803728,-0.0920258,-0.0582314,0,0,0,0,0,0,0,0,0,0.0,0.0,0.0,0.0,0.0,
1.0233946,+0.7384678,+0.6425963,+0.2017582,+0.0320764,0,0,0,0,0,0,0,0,0,0.0,0.0,0.0,0.0,0.0,+0.7309735,+0.5664794,+0.3324613,+0.1850631,0,0,0,0,0,0,0,0,0,0.0,0.0,0.0,0.0,0.0,+0.7241836,+0.6806847,-0.0934297,-0.0591384,0,0,0,0,0,0,0,0,0,0.0,0.0,0.0,0.0,0.0,
1.0341375,+0.7383720,+0.6426083,+0.2020905,+0.0319499,0,0,0,0,0,0,0,0,0,0.0,0.0,0.0,0.0,0.0,+0.7312787,+0.5681108,+0.3301049,+0.1830636,0,0,0,0,0,0,0,0,0,0.0,0.0,0.0,0.0,0.0,+0.7230951,+0.6815656,-0.0949621,-0.0598657,0,0,0,0,0,0,0,0,0,0.0,0.0,0.0,0.0,0.0,
1.0442942,+0.7383024,+0.6426342,+0.2022671,+0.0319228,0,0,0,0,0,0,0,0,0,0.0,0.0,0.0,0.0,0.0,+0.7313815,+0.5686212,+0.3294190,+0.1823024,0,0,0,0,0,0,0,0,0,0.0,0.0,0.0,0.0,0.0,+0.7225818,+0.6820638,-0.0952841,-0.0598784,0,0,0,0,0,0,0,0,0,0.0,0.0,0.0,0.0,0.0,
1.0533444,+0.7382540,+0.6426393,+0.2024314,+0.0318953,0,0,0,0,0,0,0,0,0,0.0,0.0,0.0,0.0,0.0,+0.7313247,+0.5692170,+0.3289297,+0.1815532,0,0,0,0,0,0,0,0,0,0.0,0.0,0.0,0.0,0.0,+0.7220949,+0.6825951,-0.0953049,-0.0596639,0,0,0,0,0,0,0,0,0,0.0,0.0,0.0,0.0,0.0,
1.064676,+0.7380404,+0.6427988,+0.2027036,+0.0318977,0,0,0,0,0,0,0,0,0,0.0,0.0,0.0,0.0,0.0,+0.7308255,+0.5704098,+0.3285899,+0.1804314,0,0,0,0,0,0,0,0,0,0.0,0.0,0.0,0.0,0.0,+0.7214298,+0.6835989,-0.0939776,-0.0583080,0,0,0,0,0,0,0,0,0,0.0,0.0,0.0,0.0,0.0,
1.0745854,+0.7379197,+0.6428932,+0.2028392,+0.0319233,0,0,0,0,0,0,0,0,0,0.0,0.0,0.0,0.0,0.0,+0.7303848,+0.5709487,+0.3287710,+0.1801809,0,0,0,0,0,0,0,0,0,0.0,0.0,0.0,0.0,0.0,+0.7211925,+0.6841232,-0.0926200,-0.0572567,0,0,0,0,0,0,0,0,0,0.0,0.0,0.0,0.0,0.0,
1.0846259,+0.7376227,+0.6431228,+0.2031624,+0.0321088,0,0,0,0,0,0,0,0,0,0.0,0.0,0.0,0.0,0.0,+0.7291229,+0.5720680,+0.3296672,+0.1801042,0,0,0,0,0,0,0,0,0,0.0,0.0,0.0,0.0,0.0,+0.7204849,+0.6853442,-0.0900862,-0.0555813,0,0,0,0,0,0,0,0,0,0.0,0.0,0.0,0.0,0.0,
1.0947323,+0.7374136,+0.6433008,+0.2033364,+0.0322424,0,0,0,0,0,0,0,0,0,0.0,0.0,0.0,0.0,0.0,+0.7281647,+0.5726744,+0.3305876,+0.1803665,0,0,0,0,0,0,0,0,0,0.0,0.0,0.0,0.0,0.0,+0.7201529,+0.6858358,-0.0892989,-0.0550892,0,0,0,0,0,0,0,0,0,0.0,0.0,0.0,0.0,0.0,
1.1047732,+0.7369815,+0.6436726,+0.2036838,+0.0325067,0,0,0,0,0,0,0,0,0,0.0,0.0,0.0,0.0,0.0,+0.7262508,+0.5733487,+0.3330043,+0.1814918,0,0,0,0,0,0,0,0,0,0.0,0.0,0.0,0.0,0.0,+0.7196586,+0.6867014,-0.0873308,-0.0539080,0,0,0,0,0,0,0,0,0,0.0,0.0,0.0,0.0,0.0,
1.1146199,+0.7367578,+0.6438607,+0.2038775,+0.0326409,0,0,0,0,0,0,0,0,0,0.0,0.0,0.0,0.0,0.0,+0.7254855,+0.5734168,+0.3342177,+0.1821055,0,0,0,0,0,0,0,0,0,0.0,0.0,0.0,0.0,0.0,+0.7196056,+0.6870089,-0.0859044,-0.0529827,0,0,0,0,0,0,0,0,0,0.0,0.0,0.0,0.0,0.0,
1.1243425,+0.7364168,+0.6441232,+0.2042286,+0.0329615,0,0,0,0,0,0,0,0,0,0.0,0.0,0.0,0.0,0.0,+0.7242064,+0.5732684,+0.3366335,+0.1832111,0,0,0,0,0,0,0,0,0,0.0,0.0,0.0,0.0,0.0,+0.7195438,+0.6874794,-0.0836131,-0.0513570,0,0,0,0,0,0,0,0,0,0.0,0.0,0.0,0.0,0.0,
1.135254,+0.7362437,+0.6442647,+0.2043820,+0.0331094,0,0,0,0,0,0,0,0,0,0.0,0.0,0.0,0.0,0.0,+0.7235121,+0.5731343,+0.3380535,+0.1837588,0,0,0,0,0,0,0,0,0,0.0,0.0,0.0,0.0,0.0,+0.7194742,+0.6876447,-0.0830731,-0.0509955,0,0,0,0,0,0,0,0,0,0.0,0.0,0.0,0.0,0.0,
1.1442859,+0.7361016,+0.6443743,+0.2045239,+0.0332574,0,0,0,0,0,0,0,0,0,0.0,0.0,0.0,0.0,0.0,+0.7227595,+0.5730455,+0.3394829,+0.1843611,0,0,0,0,0,0,0,0,0,0.0,0.0,0.0,0.0,0.0,+0.7193198,+0.6878730,-0.0826505,-0.0507802,0,0,0,0,0,0,0,0,0,0.0,0.0,0.0,0.0,0.0,
1.1548345,+0.7358387,+0.6445685,+0.2048052,+0.0335802,0,0,0,0,0,0,0,0,0,0.0,0.0,0.0,0.0,0.0,+0.7215200,+0.5729647,+0.3418601,+0.1850734,0,0,0,0,0,0,0,0,0,0.0,0.0,0.0,0.0,0.0,+0.7190964,+0.6883260,-0.0813424,-0.0499114,0,0,0,0,0,0,0,0,0,0.0,0.0,0.0,0.0,0.0,
1.1651924,+0.7357029,+0.6446639,+0.2049599,+0.0337818,0,0,0,0,0,0,0,0,0,0.0,0.0,0.0,0.0,0.0,+0.7210132,+0.5730628,+0.3426732,+0.1852404,0,0,0,0,0,0,0,0,0,0.0,0.0,0.0,0.0,0.0,+0.7190492,+0.6884546,-0.0809172,-0.0495068,0,0,0,0,0,0,0,0,0,0.0,0.0,0.0,0.0,0.0,
1.1752001,+0.7354014,+0.6448476,+0.2053973,+0.0341827,0,0,0,0,0,0,0,0,0,0.0,0.0,0.0,0.0,0.0,+0.7202469,+0.5731847,+0.3440026,+0.1853807,0,0,0,0,0,0,0,0,0,0.0,0.0,0.0,0.0,0.0,+0.7188253,+0.6885726,-0.0816809,-0.0498606,0,0,0,0,0,0,0,0,0,0.0,0.0,0.0,0.0,0.0,
1.1851966,+0.7352343,+0.6449527,+0.2056201,+0.0344510,0,0,0,0,0,0,0,0,0,0.0,0.0,0.0,0.0,0.0,+0.7198772,+0.5732056,+0.3446942,+0.1854672,0,0,0,0,0,0,0,0,0,0.0,0.0,0.0,0.0,0.0,+0.7186888,+0.6885988,-0.0824391,-0.0502176,0,0,0,0,0,0,0,0,0,0.0,0.0,0.0,0.0,0.0,
1.1951649,+0.7349376,+0.6451035,+0.2061278,+0.0349227,0,0,0,0,0,0,0,0,0,0.0,0.0,0.0,0.0,0.0,+0.7191719,+0.5732660,+0.3460841,+0.1854285,0,0,0,0,0,0,0,0,0,0.0,0.0,0.0,0.0,0.0,+0.7186540,+0.6885443,-0.0834308,-0.0498245,0,0,0,0,0,0,0,0,0,0.0,0.0,0.0,0.0,0.0,
1.2057462,+0.7348216,+0.6451465,+0.2063683,+0.0351473,0,0,0,0,0,0,0,0,0,0.0,0.0,0.0,0.0,0.0,+0.7188820,+0.5733564,+0.3466610,+0.1851956,0,0,0,0,0,0,0,0,0,0.0,0.0,0.0,0.0,0.0,+0.7187378,+0.6884959,-0.0835476,-0.0490829,0,0,0,0,0,0,0,0,0,0.0,0.0,0.0,0.0,0.0,
1.214747,+0.7347205,+0.6451753,+0.2066078,+0.0353234,0,0,0,0,0,0,0,0,0,0.0,0.0,0.0,0.0,0.0,+0.7186384,+0.5735065,+0.3471148,+0.1848252,0,0,0,0,0,0,0,0,0,0.0,0.0,0.0,0.0,0.0,+0.7188662,+0.6884170,-0.0835892,-0.0482311,0,0,0,0,0,0,0,0,0,0.0,0.0,0.0,0.0,0.0,
1.2257397,+0.7345012,+0.6452357,+0.2071424,+0.0356496,0,0,0,0,0,0,0,0,0,0.0,0.0,0.0,0.0,0.0,+0.7184287,+0.5736221,+0.3478545,+0.1838890,0,0,0,0,0,0,0,0,0,0.0,0.0,0.0,0.0,0.0,+0.7191275,+0.6881943,-0.0840776,-0.0466395,0,0,0,0,0,0,0,0,0,0.0,0.0,0.0,0.0,0.0,
1.2349187,+0.7343469,+0.6453065,+0.2074416,+0.0358083,0,0,0,0,0,0,0,0,0,0.0,0.0,0.0,0.0,0.0,+0.7182776,+0.5737615,+0.3481670,+0.1834528,0,0,0,0,0,0,0,0,0,0.0,0.0,0.0,0.0,0.0,+0.7193137,+0.6880137,-0.0843664,-0.0459033,0,0,0,0,0,0,0,0,0,0.0,0.0,0.0,0.0,0.0,
1.2453383,+0.7341456,+0.6453254,+0.2080449,+0.0360913,0,0,0,0,0,0,0,0,0,0.0,0.0,0.0,0.0,0.0,+0.7181726,+0.5736758,+0.3487544,+0.1830151,0,0,0,0,0,0,0,0,0,0.0,0.0,0.0,0.0,0.0,+0.7197300,+0.6876157,-0.0849408,-0.0442545,0,0,0,0,0,0,0,0,0,0.0,0.0,0.0,0.0,0.0,
1.2554176,+0.7340915,+0.6453050,+0.2082846,+0.0361770,0,0,0,0,0,0,0,0,0,0.0,0.0,0.0,0.0,0.0,+0.7181883,+0.5734758,+0.3490484,+0.1830200,0,0,0,0,0,0,0,0,0,0.0,0.0,0.0,0.0,0.0,+0.7199356,+0.6874120,-0.0852813,-0.0434110,0,0,0,0,0,0,0,0,0,0.0,0.0,0.0,0.0,0.0,
1.2654109,+0.7340006,+0.6452662,+0.2087115,+0.0362526,0,0,0,0,0,0,0,0,0,0.0,0.0,0.0,0.0,0.0,+0.7181124,+0.5732697,+0.3494947,+0.1831118,0,0,0,0,0,0,0,0,0,0.0,0.0,0.0,0.0,0.0,+0.7200987,+0.6871408,-0.0866984,-0.0421745,0,0,0,0,0,0,0,0,0,0.0,0.0,0.0,0.0,0.0,
1.2758034,+0.7339322,+0.6452566,+0.2089792,+0.0362669,0,0,0,0,0,0,0,0,0,0.0,0.0,0.0,0.0,0.0,+0.7180651,+0.5732191,+0.3497148,+0.1830354,0,0,0,0,0,0,0,0,0,0.0,0.0,0.0,0.0,0.0,+0.7201144,+0.6870431,-0.0876004,-0.0416316,0,0,0,0,0,0,0,0,0,0.0,0.0,0.0,0.0,0.0,
1.2859425,+0.7338111,+0.6451995,+0.2095763,+0.0362860,0,0,0,0,0,0,0,0,0,0.0,0.0,0.0,0.0,0.0,+0.7177948,+0.5733448,+0.3502227,+0.1827304,0,0,0,0,0,0,0,0,0,0.0,0.0,0.0,0.0,0.0,+0.7202076,+0.6868917,-0.0888057,-0.0399285,0,0,0,0,0,0,0,0,0,0.0,0.0,0.0,0.0,0.0,
1.2961098,+0.7337425,+0.6451871,+0.2098576,+0.0362688,0,0,0,0,0,0,0,0,0,0.0,0.0,0.0,0.0,0.0,+0.7177399,+0.5732166,+0.3505389,+0.1827419,0,0,0,0,0,0,0,0,0,0.0,0.0,0.0,0.0,0.0,+0.7203082,+0.6867998,-0.0891539,-0.0389056,0,0,0,0,0,0,0,0,0,0.0,0.0,0.0,0.0,0.0,
1.3053599,+0.7337196,+0.6451301,+0.2101147,+0.0362550,0,0,0,0,0,0,0,0,0,0.0,0.0,0.0,0.0,0.0,+0.7177162,+0.5730572,+0.3508746,+0.1826907,0,0,0,0,0,0,0,0,0,0.0,0.0,0.0,0.0,0.0,+0.7204202,+0.6866874,-0.0895224,-0.0379585,0,0,0,0,0,0,0,0,0,0.0,0.0,0.0,0.0,0.0,
1.3159394,+0.7336391,+0.6450458,+0.2106643,+0.0361968,0,0,0,0,0,0,0,0,0,0.0,0.0,0.0,0.0,0.0,+0.7176886,+0.5728277,+0.3513181,+0.1826668,0,0,0,0,0,0,0,0,0,0.0,0.0,0.0,0.0,0.0,+0.7206069,+0.6864668,-0.0903835,-0.0363311,0,0,0,0,0,0,0,0,0,0.0,0.0,0.0,0.0,0.0,
1.3258283,+0.7335395,+0.6450593,+0.2109776,+0.0361500,0,0,0,0,0,0,0,0,0,0.0,0.0,0.0,0.0,0.0,+0.7176810,+0.5727021,+0.3515078,+0.1827253,0,0,0,0,0,0,0,0,0,0.0,0.0,0.0,0.0,0.0,+0.7207012,+0.6863580,-0.0907874,-0.0354984,0,0,0,0,0,0,0,0,0,0.0,0.0,0.0,0.0,0.0,
1.3354711,+0.7333725,+0.6450753,+0.2115310,+0.0360180,0,0,0,0,0,0,0,0,0,0.0,0.0,0.0,0.0,0.0,+0.7174419,+0.5725900,+0.3520389,+0.1829929,0,0,0,0,0,0,0,0,0,0.0,0.0,0.0,0.0,0.0,+0.7209099,+0.6863509,-0.0901055,-0.0330502,0,0,0,0,0,0,0,0,0,0.0,0.0,0.0,0.0,0.0,
1.3459983,+0.7333081,+0.6450868,+0.2117306,+0.0359508,0,0,0,0,0,0,0,0,0,0.0,0.0,0.0,0.0,0.0,+0.7173164,+0.5725436,+0.3523095,+0.1831096,0,0,0,0,0,0,0,0,0,0.0,0.0,0.0,0.0,0.0,+0.7211393,+0.6864507,-0.0882128,-0.0310177,0,0,0,0,0,0,0,0,0,0.0,0.0,0.0,0.0,0.0,
1.3564412,+0.7331781,+0.6450889,+0.2121931,+0.0358386,0,0,0,0,0,0,0,0,0,0.0,0.0,0.0,0.0,0.0,+0.7169546,+0.5727527,+0.3526935,+0.1831335,0,0,0,0,0,0,0,0,0,0.0,0.0,0.0,0.0,0.0,+0.7215756,+0.6865202,-0.0849081,-0.0284513,0,0,0,0,0,0,0,0,0,0.0,0.0,0.0,0.0,0.0,
1.3665747,+0.7330986,+0.6450916,+0.2124609,+0.0358281,0,0,0,0,0,0,0,0,0,0.0,0.0,0.0,0.0,0.0,+0.7167849,+0.5728139,+0.3528782,+0.1832504,0,0,0,0,0,0,0,0,0,0.0,0.0,0.0,0.0,0.0,+0.7215858,+0.6865460,-0.0845534,-0.0286221,0,0,0,0,0,0,0,0,0,0.0,0.0,0.0,0.0,0.0,
1.3766483,+0.7328541,+0.6451501,+0.2131213,+0.0358546,0,0,0,0,0,0,0,0,0,0.0,0.0,0.0,0.0,0.0,+0.7164583,+0.5727903,+0.3533987,+0.1835978,0,0,0,0,0,0,0,0,0,0.0,0.0,0.0,0.0,0.0,+0.7212259,+0.6869450,-0.0840353,-0.0296294,0,0,0,0,0,0,0,0,0,0.0,0.0,0.0,0.0,0.0,
1.3866396,+0.7327240,+0.6452006,+0.2134188,+0.0358358,0,0,0,0,0,0,0,0,0,0.0,0.0,0.0,0.0,0.0,+0.7162088,+0.5727803,+0.3538572,+0.1837196,0,0,0,0,0,0,0,0,0,0.0,0.0,0.0,0.0,0.0,+0.7211725,+0.6870686,-0.0833672,-0.0299498,0,0,0,0,0,0,0,0,0,0.0,0.0,0.0,0.0,0.0,
1.3967184,+0.7325788,+0.6452900,+0.2136549,+0.0357867,0,0,0,0,0,0,0,0,0,0.0,0.0,0.0,0.0,0.0,+0.7159525,+0.5726774,+0.3544556,+0.1838854,0,0,0,0,0,0,0,0,0,0.0,0.0,0.0,0.0,0.0,+0.7211261,+0.6871733,-0.0827721,-0.0303107,0,0,0,0,0,0,0,0,0,0.0,0.0,0.0,0.0,0.0,
1.4057685,+0.7323685,+0.6454110,+0.2140370,+0.0356252,0,0,0,0,0,0,0,0,0,0.0,0.0,0.0,0.0,0.0,+0.7153003,+0.5723208,+0.3562673,+0.1840329,0,0,0,0,0,0,0,0,0,0.0,0.0,0.0,0.0,0.0,+0.7210605,+0.6872600,-0.0821876,-0.0314745,0,0,0,0,0,0,0,0,0,0.0,0.0,0.0,0.0,0.0,
1.4171333,+0.7322841,+0.6454417,+0.2142445,+0.0355576,0,0,0,0,0,0,0,0,0,0.0,0.0,0.0,0.0,0.0,+0.7151690,+0.5720352,+0.3570561,+0.1839023,0,0,0,0,0,0,0,0,0,0.0,0.0,0.0,0.0,0.0,+0.7210616,+0.6872579,-0.0819820,-0.0320264,0,0,0,0,0,0,0,0,0,0.0,0.0,0.0,0.0,0.0,
1.4264465,+0.7320079,+0.6455722,+0.2147825,+0.0356289,0,0,0,0,0,0,0,0,0,0.0,0.0,0.0,0.0,0.0,+0.7148131,+0.5715004,+0.3588893,+0.1833795,0,0,0,0,0,0,0,0,0,0.0,0.0,0.0,0.0,0.0,+0.7212263,+0.6871679,-0.0811027,-0.0324837,0,0,0,0,0,0,0,0,0,0.0,0.0,0.0,0.0,0.0,
1.4364422,+0.7317768,+0.6457022,+0.2151556,+0.0357691,0,0,0,0,0,0,0,0,0,0.0,0.0,0.0,0.0,0.0,+0.7145193,+0.5712485,+0.3599926,+0.1831470,0,0,0,0,0,0,0,0,0,0.0,0.0,0.0,0.0,0.0,+0.7213182,+0.6871553,-0.0804192,-0.0324081,0,0,0,0,0,0,0,0,0,0.0,0.0,0.0,0.0,0.0,
1.4471153,+0.7312851,+0.6459574,+0.2160075,+0.0360822,0,0,0,0,0,0,0,0,0,0.0,0.0,0.0,0.0,0.0,+0.7137308,+0.5708817,+0.3624951,+0.1824274,0,0,0,0,0,0,0,0,0,0.0,0.0,0.0,0.0,0.0,+0.7214794,+0.6871983,-0.0787323,-0.0320495,0,0,0,0,0,0,0,0,0,0.0,0.0,0.0,0.0,0.0,
1.4570154,+0.7311386,+0.6460030,+0.2163475,+0.0361983,0,0,0,0,0,0,0,0,0,0.0,0.0,0.0,0.0,0.0,+0.7132608,+0.5708243,+0.3636654,+0.1821158,0,0,0,0,0,0,0,0,0,0.0,0.0,0.0,0.0,0.0,+0.7215208,+0.6872520,-0.0779471,-0.0318830,0,0,0,0,0,0,0,0,0,0.0,0.0,0.0,0.0,0.0,
1.466712,+0.7310065,+0.6460385,+0.2166774,+0.0362595,0,0,0,0,0,0,0,0,0,0.0,0.0,0.0,0.0,0.0,+0.7130651,+0.5705972,+0.3645439,+0.1818372,0,0,0,0,0,0,0,0,0,0.0,0.0,0.0,0.0,0.0,+0.7214934,+0.6873411,-0.0774167,-0.0318777,0,0,0,0,0,0,0,0,0,0.0,0.0,0.0,0.0,0.0,
1.4757873,+0.7307159,+0.6461761,+0.2172322,+0.0363462,0,0,0,0,0,0,0,0,0,0.0,0.0,0.0,0.0,0.0,+0.7128177,+0.5701600,+0.3660659,+0.1811195,0,0,0,0,0,0,0,0,0,0.0,0.0,0.0,0.0,0.0,+0.7212276,+0.6875890,-0.0774295,-0.0325075,0,0,0,0,0,0,0,0,0,0.0,0.0,0.0,0.0,0.0,
1.4862212,+0.7306078,+0.6462191,+0.2174604,+0.0363891,0,0,0,0,0,0,0,0,0,0.0,0.0,0.0,0.0,0.0,+0.7125758,+0.5700553,+0.3668441,+0.1808261,0,0,0,0,0,0,0,0,0,0.0,0.0,0.0,0.0,0.0,+0.7210361,+0.6877195,-0.0778247,-0.0330507,0,0,0,0,0,0,0,0,0,0.0,0.0,0.0,0.0,0.0,
1.4963468,+0.7303026,+0.6463984,+0.2179433,+0.0364412,0,0,0,0,0,0,0,0,0,0.0,0.0,0.0,0.0,0.0,+0.7122027,+0.5702867,+0.3678638,+0.1794904,0,0,0,0,0,0,0,0,0,0.0,0.0,0.0,0.0,0.0,+0.7206215,+0.6879851,-0.0789020,-0.0339956,0,0,0,0,0,0,0,0,0,0.0,0.0,0.0,0.0,0.0,
1.5062437,+0.7301090,+0.6465250,+0.2182121,+0.0364671,0,0,0,0,0,0,0,0,0,0.0,0.0,0.0,0.0,0.0,+0.7121809,+0.5703803,+0.3680961,+0.1788015,0,0,0,0,0,0,0,0,0,0.0,0.0,0.0,0.0,0.0,+0.7204501,+0.6881071,-0.0792795,-0.0342795,0,0,0,0,0,0,0,0,0,0.0,0.0,0.0,0.0,0.0,
1.5172003,+0.7297384,+0.6467578,+0.2187490,+0.0365392,0,0,0,0,0,0,0,0,0,0.0,0.0,0.0,0.0,0.0,+0.7121767,+0.5702625,+0.3687275,+0.1778904,0,0,0,0,0,0,0,0,0,0.0,0.0,0.0,0.0,0.0,+0.7202318,+0.6882781,-0.0797002,-0.0344560,0,0,0,0,0,0,0,0,0,0.0,0.0,0.0,0.0,0.0,
1.526876,+0.7295445,+0.6468924,+0.2189894,+0.0365886,0,0,0,0,0,0,0,0,0,0.0,0.0,0.0,0.0,0.0,+0.7121111,+0.5702955,+0.3689983,+0.1774862,0,0,0,0,0,0,0,0,0,0.0,0.0,0.0,0.0,0.0,+0.7201177,+0.6883867,-0.0798119,-0.0344131,0,0,0,0,0,0,0,0,0,0.0,0.0,0.0,0.0,0.0,
1.5372603,+0.7292256,+0.6471019,+0.2194219,+0.0366482,0,0,0,0,0,0,0,0,0,0.0,0.0,0.0,0.0,0.0,+0.7119656,+0.5704661,+0.3693759,+0.1767339,0,0,0,0,0,0,0,0,0,0.0,0.0,0.0,0.0,0.0,+0.7199455,+0.6886321,-0.0794341,-0.0339792,0,0,0,0,0,0,0,0,0,0.0,0.0,0.0,0.0,0.0,
1.5473264,+0.7290967,+0.6471937,+0.2195805,+0.0366451,0,0,0,0,0,0,0,0,0,0.0,0.0,0.0,0.0,0.0,+0.7118927,+0.5705679,+0.3695146,+0.1764085,0,0,0,0,0,0,0,0,0,0.0,0.0,0.0,0.0,0.0,+0.7199839,+0.6886789,-0.0788893,-0.0334834,0,0,0,0,0,0,0,0,0,0.0,0.0,0.0,0.0,0.0,
1.5575176,+0.7289601,+0.6472950,+0.2197344,+0.0366498,0,0,0,0,0,0,0,0,0,0.0,0.0,0.0,0.0,0.0,+0.7118293,+0.5707026,+0.3695804,+0.1760909,0,0,0,0,0,0,0,0,0,0.0,0.0,0.0,0.0,0.0,+0.7200298,+0.6887215,-0.0782973,-0.0330030,0,0,0,0,0,0,0,0,0,0.0,0.0,0.0,0.0,0.0,
1.5672428,+0.7287161,+0.6474913,+0.2199657,+0.0366470,0,0,0,0,0,0,0,0,0,0.0,0.0,0.0,0.0,0.0,+0.7116178,+0.5710003,+0.3698667,+0.1753779,0,0,0,0,0,0,0,0,0,0.0,0.0,0.0,0.0,0.0,+0.7201183,+0.6887289,-0.0776654,-0.0324079,0,0,0,0,0,0,0,0,0,0.0,0.0,0.0,0.0,0.0,
1.5775874,+0.7285891,+0.6475931,+0.2200906,+0.0366223,0,0,0,0,0,0,0,0,0,0.0,0.0,0.0,0.0,0.0,+0.7114787,+0.5711502,+0.3700739,+0.1750168,0,0,0,0,0,0,0,0,0,0.0,0.0,0.0,0.0,0.0,+0.7201306,+0.6887383,-0.0775314,-0.0322574,0,0,0,0,0,0,0,0,0,0.0,0.0,0.0,0.0,0.0,
1.5877129,+0.7283660,+0.6477813,+0.2202951,+0.0365030,0,0,0,0,0,0,0,0,0,0.0,0.0,0.0,0.0,0.0,+0.7112376,+0.5713317,+0.3705921,+0.1743060,0,0,0,0,0,0,0,0,0,0.0,0.0,0.0,0.0,0.0,+0.7202410,+0.6887002,-0.0770921,-0.0316510,0,0,0,0,0,0,0,0,0,0.0,0.0,0.0,0.0,0.0,
1.5980375,+0.7282802,+0.6478466,+0.2203957,+0.0364475,0,0,0,0,0,0,0,0,0,0.0,0.0,0.0,0.0,0.0,+0.7111424,+0.5713469,+0.3709156,+0.1739565,0,0,0,0,0,0,0,0,0,0.0,0.0,0.0,0.0,0.0,+0.7203609,+0.6886256,-0.0768052,-0.0312394,0,0,0,0,0,0,0,0,0,0.0,0.0,0.0,0.0,0.0,
1.6080573,+0.7281453,+0.6479417,+0.2205775,+0.0363542,0,0,0,0,0,0,0,0,0,0.0,0.0,0.0,0.0,0.0,+0.7110630,+0.5712247,+0.3715620,+0.1733016,0,0,0,0,0,0,0,0,0,0.0,0.0,0.0,0.0,0.0,+0.7205819,+0.6884837,-0.0762505,-0.0306224,0,0,0,0,0,0,0,0,0,0.0,0.0,0.0,0.0,0.0,
1.6092101,+0.7280616,+0.6480195,+0.2206274,+0.0363409,0,0,0,0,0,0,0,0,0,0.0,0.0,0.0,0.0,0.0,+0.7110292,+0.5711171,+0.3719232,+0.1730203,0,0,0,0,0,0,0,0,0,0.0,0.0,0.0,0.0,0.0,+0.7206726,+0.6884010,-0.0761704,-0.0305475,0,0,0,0,0,0,0,0,0,0.0,0.0,0.0,0.0,0.0,
1.619148,+0.7280034,+0.6480761,+0.2206569,+0.0363187,0,0,0,0,0,0,0,0,0,0.0,0.0,0.0,0.0,0.0,+0.7109958,+0.5709916,+0.3722841,+0.1727953,0,0,0,0,0,0,0,0,0,0.0,0.0,0.0,0.0,0.0,+0.7207031,+0.6883605,-0.0762301,-0.0305943,0,0,0,0,0,0,0,0,0,0.0,0.0,0.0,0.0,0.0,
1.6384367,+0.7278782,+0.6482079,+0.2206858,+0.0362988,0,0,0,0,0,0,0,0,0,0.0,0.0,0.0,0.0,0.0,+0.7110109,+0.5706240,+0.3729829,+0.1724398,0,0,0,0,0,0,0,0,0,0.0,0.0,0.0,0.0,0.0,+0.7206816,+0.6883909,-0.0761232,-0.0306789,0,0,0,0,0,0,0,0,0,0.0,0.0,0.0,0.0,0.0,
1.6394667,+0.7278442,+0.6482455,+0.2206892,+0.0362884,0,0,0,0,0,0,0,0,0,0.0,0.0,0.0,0.0,0.0,+0.7110502,+0.5704467,+0.3732487,+0.1722895,0,0,0,0,0,0,0,0,0,0.0,0.0,0.0,0.0,0.0,+0.7207490,+0.6883549,-0.0758439,-0.0305962,0,0,0,0,0,0,0,0,0,0.0,0.0,0.0,0.0,0.0,
1.649166,+0.7276756,+0.6483981,+0.2207903,+0.0363289,0,0,0,0,0,0,0,0,0,0.0,0.0,0.0,0.0,0.0,+0.7111109,+0.5702381,+0.3736399,+0.1718808,0,0,0,0,0,0,0,0,0,0.0,0.0,0.0,0.0,0.0,+0.7209597,+0.6881759,-0.0754153,-0.0307180,0,0,0,0,0,0,0,0,0,0.0,0.0,0.0,0.0,0.0,
1.668659,+0.7275903,+0.6484721,+0.2208534,+0.0363321,0,0,0,0,0,0,0,0,0,0.0,0.0,0.0,0.0,0.0,+0.7111149,+0.5701589,+0.3738489,+0.1716726,0,0,0,0,0,0,0,0,0,0.0,0.0,0.0,0.0,0.0,+0.7211065,+0.6880143,-0.0753849,-0.0309672,0,0,0,0,0,0,0,0,0,0.0,0.0,0.0,0.0,0.0,
1.6786007,+0.7276044,+0.6484395,+0.2209127,+0.0362701,0,0,0,0,0,0,0,0,0,0.0,0.0,0.0,0.0,0.0,+0.7110900,+0.5700153,+0.3742795,+0.1713139,0,0,0,0,0,0,0,0,0,0.0,0.0,0.0,0.0,0.0,+0.7213615,+0.6877387,-0.0752521,-0.0314674,0,0,0,0,0,0,0,0,0,0.0,0.0,0.0,0.0,0.0,
1.6877367,+0.7275574,+0.6485000,+0.2209031,+0.0361905,0,0,0,0,0,0,0,0,0,0.0,0.0,0.0,0.0,0.0,+0.7110952,+0.5698873,+0.3745511,+0.1711241,0,0,0,0,0,0,0,0,0,0.0,0.0,0.0,0.0,0.0,+0.7215412,+0.6875607,-0.0750979,-0.0316036,0,0,0,0,0,0,0,0,0,0.0,0.0,0.0,0.0,0.0,
1.6978966,+0.7275034,+0.6485932,+0.2208326,+0.0360368,0,0,0,0,0,0,0,0,0,0.0,0.0,0.0,0.0,0.0,+0.7111287,+0.5695826,+0.3751405,+0.1707087,0,0,0,0,0,0,0,0,0,0.0,0.0,0.0,0.0,0.0,+0.7218955,+0.6872055,-0.0748080,-0.0319285,0,0,0,0,0,0,0,0,0,0.0,0.0,0.0,0.0,0.0,
1.7086042,+0.7274260,+0.6486761,+0.2208510,+0.0359946,0,0,0,0,0,0,0,0,0,0.0,0.0,0.0,0.0,0.0,+0.7111416,+0.5694422,+0.3754399,+0.1704644,0,0,0,0,0,0,0,0,0,0.0,0.0,0.0,0.0,0.0,+0.7220731,+0.6870170,-0.0747206,-0.0321719,0,0,0,0,0,0,0,0,0,0.0,0.0,0.0,0.0,0.0,
1.7184436,+0.7273301,+0.6487716,+0.2208863,+0.0359942,0,0,0,0,0,0,0,0,0,0.0,0.0,0.0,0.0,0.0,+0.7111261,+0.5693196,+0.3757889,+0.1701693,0,0,0,0,0,0,0,0,0,0.0,0.0,0.0,0.0,0.0,+0.7222478,+0.6868275,-0.0746559,-0.0324449,0,0,0,0,0,0,0,0,0,0.0,0.0,0.0,0.0,0.0,
1.7287961,+0.7271916,+0.6488782,+0.2210109,+0.0361058,0,0,0,0,0,0,0,0,0,0.0,0.0,0.0,0.0,0.0,+0.7111153,+0.5690147,+0.3765515,+0.1695475,0,0,0,0,0,0,0,0,0,0.0,0.0,0.0,0.0,0.0,+0.7225354,+0.6865129,-0.0745418,-0.0329564,0,0,0,0,0,0,0,0,0,0.0,0.0,0.0,0.0,0.0,
1.7390884,+0.7271867,+0.6488770,+0.2210344,+0.0360842,0,0,0,0,0,0,0,0,0,0.0,0.0,0.0,0.0,0.0,+0.7111203,+0.5688676,+0.3768833,+0.1692825,0,0,0,0,0,0,0,0,0,0.0,0.0,0.0,0.0,0.0,+0.7226592,+0.6863659,-0.0745492,-0.0332881,0,0,0,0,0,0,0,0,0,0.0,0.0,0.0,0.0,0.0,
1.7488898,+0.7271219,+0.6489310,+0.2210955,+0.0360430,0,0,0,0,0,0,0,0,0,0.0,0.0,0.0,0.0,0.0,+0.7112495,+0.5684934,+0.3774340,+0.1687690,0,0,0,0,0,0,0,0,0,0.0,0.0,0.0,0.0,0.0,+0.7228701,+0.6860670,-0.0749092,-0.0340516,0,0,0,0,0,0,0,0,0,0.0,0.0,0.0,0.0,0.0,
1.758966,+0.7271164,+0.6489262,+0.2211336,+0.0360073,0,0,0,0,0,0,0,0,0,0.0,0.0,0.0,0.0,0.0,+0.7113103,+0.5683193,+0.3776718,+0.1685670,0,0,0,0,0,0,0,0,0,0.0,0.0,0.0,0.0,0.0,+0.7229709,+0.6859223,-0.0750985,-0.0344084,0,0,0,0,0,0,0,0,0,0.0,0.0,0.0,0.0,0.0,
1.7689724,+0.7269790,+0.6490520,+0.2212231,+0.0359633,0,0,0,0,0,0,0,0,0,0.0,0.0,0.0,0.0,0.0,+0.7114154,+0.5680022,+0.3781420,+0.1681378,0,0,0,0,0,0,0,0,0,0.0,0.0,0.0,0.0,0.0,+0.7232136,+0.6856443,-0.0751264,-0.0347840,0,0,0,0,0,0,0,0,0,0.0,0.0,0.0,0.0,0.0,
1.7788353,+0.7269604,+0.6490589,+0.2212707,+0.0359220,0,0,0,0,0,0,0,0,0,0.0,0.0,0.0,0.0,0.0,+0.7114663,+0.5678413,+0.3783872,+0.1679143,0,0,0,0,0,0,0,0,0,0.0,0.0,0.0,0.0,0.0,+0.7233416,+0.6855131,-0.0750724,-0.0348277,0,0,0,0,0,0,0,0,0,0.0,0.0,0.0,0.0,0.0,
1.7884337,+0.7269453,+0.6490666,+0.2213023,+0.0358953,0,0,0,0,0,0,0,0,0,0.0,0.0,0.0,0.0,0.0,+0.7114657,+0.5677363,+0.3786258,+0.1677336,0,0,0,0,0,0,0,0,0,0.0,0.0,0.0,0.0,0.0,+0.7234175,+0.6854367,-0.0750147,-0.0348781,0,0,0,0,0,0,0,0,0,0.0,0.0,0.0,0.0,0.0,
1.7991145,+0.7269318,+0.6490678,+0.2213496,+0.0358528,0,0,0,0,0,0,0,0,0,0.0,0.0,0.0,0.0,0.0,+0.7115023,+0.5675640,+0.3789758,+0.1673712,0,0,0,0,0,0,0,0,0,0.0,0.0,0.0,0.0,0.0,+0.7236822,+0.6852285,-0.0744157,-0.0347590,0,0,0,0,0,0,0,0,0,0.0,0.0,0.0,0.0,0.0,
1.809755,+0.7269082,+0.6490862,+0.2213767,+0.0358331,0,0,0,0,0,0,0,0,0,0.0,0.0,0.0,0.0,0.0,+0.7114931,+0.5675020,+0.3791696,+0.1671815,0,0,0,0,0,0,0,0,0,0.0,0.0,0.0,0.0,0.0,+0.7239223,+0.6850627,-0.0737177,-0.0345151,0,0,0,0,0,0,0,0,0,0.0,0.0,0.0,0.0,0.0,
1.8129478,+0.7268755,+0.6491141,+0.2214051,+0.0358146,0,0,0,0,0,0,0,0,0,0.0,0.0,0.0,0.0,0.0,+0.7114771,+0.5673877,+0.3795230,+0.1668350,0,0,0,0,0,0,0,0,0,0.0,0.0,0.0,0.0,0.0,+0.7243205,+0.6847678,-0.0726027,-0.0343756,0,0,0,0,0,0,0,0,0,0.0,0.0,0.0,0.0,0.0,
1.823138,+0.7268581,+0.6491304,+0.2214151,+0.0358098,0,0,0,0,0,0,0,0,0,0.0,0.0,0.0,0.0,0.0,+0.7114965,+0.5673438,+0.3796483,+0.1666165,0,0,0,0,0,0,0,0,0,0.0,0.0,0.0,0.0,0.0,+0.7244052,+0.6846636,-0.0725768,-0.0347207,0,0,0,0,0,0,0,0,0,0.0,0.0,0.0,0.0,0.0,
1.8395187,+0.7268497,+0.6491401,+0.2214140,+0.0358133,0,0,0,0,0,0,0,0,0,0.0,0.0,0.0,0.0,0.0,+0.7115106,+0.5673699,+0.3797961,+0.1661298,0,0,0,0,0,0,0,0,0,0.0,0.0,0.0,0.0,0.0,+0.7245425,+0.6844227,-0.0730232,-0.0356555,0,0,0,0,0,0,0,0,0,0.0,0.0,0.0,0.0,0.0,
1.8495401,+0.7268190,+0.6491686,+0.2214326,+0.0358039,0,0,0,0,0,0,0,0,0,0.0,0.0,0.0,0.0,0.0,+0.7115442,+0.5673386,+0.3798920,+0.1658733,0,0,0,0,0,0,0,0,0,0.0,0.0,0.0,0.0,0.0,+0.7246570,+0.6842890,-0.0730492,-0.0358429,0,0,0,0,0,0,0,0,0,0.0,0.0,0.0,0.0,0.0,
1.8536954,+0.7267820,+0.6491966,+0.2214771,+0.0357709,0,0,0,0,0,0,0,0,0,0.0,0.0,0.0,0.0,0.0,+0.7115752,+0.5671468,+0.3803050,+0.1654488,0,0,0,0,0,0,0,0,0,0.0,0.0,0.0,0.0,0.0,+0.7248777,+0.6840979,-0.0727121,-0.0357125,0,0,0,0,0,0,0,0,0,0.0,0.0,0.0,0.0,0.0,
1.8694755,+0.7267635,+0.6492108,+0.2214991,+0.0357546,0,0,0,0,0,0,0,0,0,0.0,0.0,0.0,0.0,0.0,+0.7115431,+0.5670295,+0.3806169,+0.1652716,0,0,0,0,0,0,0,0,0,0.0,0.0,0.0,0.0,0.0,+0.7249756,+0.6840191,-0.0725072,-0.0356487,0,0,0,0,0,0,0,0,0,0.0,0.0,0.0,0.0,0.0,
1.8740634,+0.7267876,+0.6491846,+0.2214973,+0.0357495,0,0,0,0,0,0,0,0,0,0.0,0.0,0.0,0.0,0.0,+0.7115465,+0.5668936,+0.3808908,+0.1650925,0,0,0,0,0,0,0,0,0,0.0,0.0,0.0,0.0,0.0,+0.7250584,+0.6839352,-0.0724452,-0.0357029,0,0,0,0,0,0,0,0,0,0.0,0.0,0.0,0.0,0.0,
1.8840514,+0.7267618,+0.6492075,+0.2215170,+0.0357376,0,0,0,0,0,0,0,0,0,0.0,0.0,0.0,0.0,0.0,+0.7115723,+0.5667266,+0.3812514,+0.1647218,0,0,0,0,0,0,0,0,0,0.0,0.0,0.0,0.0,0.0,+0.7252657,+0.6836835,-0.0726103,-0.0359771,0,0,0,0,0,0,0,0,0,0.0,0.0,0.0,0.0,0.0,
1.8999512,+0.7267743,+0.6491929,+0.2215195,+0.0357315,0,0,0,0,0,0,0,0,0,0.0,0.0,0.0,0.0,0.0,+0.7115864,+0.5666425,+0.3814293,+0.1645382,0,0,0,0,0,0,0,0,0,0.0,0.0,0.0,0.0,0.0,+0.7253487,+0.6835769,-0.0727167,-0.0361139,0,0,0,0,0,0,0,0,0,0.0,0.0,0.0,0.0,0.0,
1.9045768,+0.7267398,+0.6492158,+0.2215723,+0.0356896,0,0,0,0,0,0,0,0,0,0.0,0.0,0.0,0.0,0.0,+0.7116380,+0.5664539,+0.3817675,+0.1641797,0,0,0,0,0,0,0,0,0,0.0,0.0,0.0,0.0,0.0,+0.7256229,+0.6832995,-0.0726471,-0.0359962,0,0,0,0,0,0,0,0,0,0.0,0.0,0.0,0.0,0.0,
1.9146328,+0.7267237,+0.6492271,+0.2215952,+0.0356719,0,0,0,0,0,0,0,0,0,0.0,0.0,0.0,0.0,0.0,+0.7116404,+0.5664300,+0.3819016,+0.1639396,0,0,0,0,0,0,0,0,0,0.0,0.0,0.0,0.0,0.0,+0.7257929,+0.6831395,-0.0725166,-0.0358674,0,0,0,0,0,0,0,0,0,0.0,0.0,0.0,0.0,0.0,
1.9255521,+0.7266940,+0.6492510,+0.2216256,+0.0356505,0,0,0,0,0,0,0,0,0,0.0,0.0,0.0,0.0,0.0,+0.7117710,+0.5662278,+0.3821077,+0.1635906,0,0,0,0,0,0,0,0,0,0.0,0.0,0.0,0.0,0.0,+0.7260934,+0.6828652,-0.0721964,-0.0356546,0,0,0,0,0,0,0,0,0,0.0,0.0,0.0,0.0,0.0,
1.9350747,+0.7266912,+0.6492524,+0.2216318,+0.0356453,0,0,0,0,0,0,0,0,0,0.0,0.0,0.0,0.0,0.0,+0.7118368,+0.5661098,+0.3822165,+0.1634579,0,0,0,0,0,0,0,0,0,0.0,0.0,0.0,0.0,0.0,+0.7261994,+0.6827825,-0.0719925,-0.0354904,0,0,0,0,0,0,0,0,0,0.0,0.0,0.0,0.0,0.0,
1.9499056,+0.7266855,+0.6492545,+0.2216463,+0.0356327,0,0,0,0,0,0,0,0,0,0.0,0.0,0.0,0.0,0.0,+0.7118880,+0.5660021,+0.3823339,+0.1633343,0,0,0,0,0,0,0,0,0,0.0,0.0,0.0,0.0,0.0,+0.7263485,+0.6826581,-0.0717441,-0.0353346,0,0,0,0,0,0,0,0,0,0.0,0.0,0.0,0.0,0.0,
1.9604644,+0.7266617,+0.6492766,+0.2216610,+0.0356251,0,0,0,0,0,0,0,0,0,0.0,0.0,0.0,0.0,0.0,+0.7119074,+0.5658666,+0.3826264,+0.1630334,0,0,0,0,0,0,0,0,0,0.0,0.0,0.0,0.0,0.0,+0.7266154,+0.6824298,-0.0713147,-0.0351281,0,0,0,0,0,0,0,0,0,0.0,0.0,0.0,0.0,0.0,
1.9705094,+0.7266512,+0.6492865,+0.2216665,+0.0356227,0,0,0,0,0,0,0,0,0,0.0,0.0,0.0,0.0,0.0,+0.7119053,+0.5657645,+0.3828205,+0.1629415,0,0,0,0,0,0,0,0,0,0.0,0.0,0.0,0.0,0.0,+0.7266719,+0.6823838,-0.0711806,-0.0351229,0,0,0,0,0,0,0,0,0,0.0,0.0,0.0,0.0,0.0,
1.9802884,+0.7266457,+0.6492866,+0.2216872,+0.0356040,0,0,0,0,0,0,0,0,0,0.0,0.0,0.0,0.0,0.0,+0.7118403,+0.5655538,+0.3833043,+0.1628191,0,0,0,0,0,0,0,0,0,0.0,0.0,0.0,0.0,0.0,+0.7268296,+0.6822430,-0.0708553,-0.0352543,0,0,0,0,0,0,0,0,0,0.0,0.0,0.0,0.0,0.0,
1.9898376,+0.7266405,+0.6492909,+0.2216929,+0.0355999,0,0,0,0,0,0,0,0,0,0.0,0.0,0.0,0.0,0.0,+0.7118154,+0.5654693,+0.3835071,+0.1627442,0,0,0,0,0,0,0,0,0,0.0,0.0,0.0,0.0,0.0,+0.7269232,+0.6821632,-0.0706394,-0.0353004,0,0,0,0,0,0,0,0,0,0.0,0.0,0.0,0.0,0.0,
2.0006149,+0.7266455,+0.6492814,+0.2217063,+0.0355854,0,0,0,0,0,0,0,0,0,0.0,0.0,0.0,0.0,0.0,+0.7118244,+0.5653650,+0.3837483,+0.1624985,0,0,0,0,0,0,0,0,0,0.0,0.0,0.0,0.0,0.0,+0.7270642,+0.6820015,-0.0706077,-0.0355827,0,0,0,0,0,0,0,0,0,0.0,0.0,0.0,0.0,0.0,
2.0106469,+0.7265980,+0.6493254,+0.2217355,+0.0355704,0,0,0,0,0,0,0,0,0,0.0,0.0,0.0,0.0,0.0,+0.7118283,+0.5653011,+0.3839004,+0.1623441,0,0,0,0,0,0,0,0,0,0.0,0.0,0.0,0.0,0.0,+0.7270973,+0.6819293,-0.0708107,-0.0358839,0,0,0,0,0,0,0,0,0,0.0,0.0,0.0,0.0,0.0,
2.0206113,+0.7265088,+0.6494111,+0.2217796,+0.0355528,0,0,0,0,0,0,0,0,0,0.0,0.0,0.0,0.0,0.0,+0.7118752,+0.5650824,+0.3842416,+0.1620930,0,0,0,0,0,0,0,0,0,0.0,0.0,0.0,0.0,0.0,+0.7272259,+0.6817468,-0.0710839,-0.0362060,0,0,0,0,0,0,0,0,0,0.0,0.0,0.0,0.0,0.0,
2.0308191,+0.7264760,+0.6494465,+0.2217821,+0.0355597,0,0,0,0,0,0,0,0,0,0.0,0.0,0.0,0.0,0.0,+0.7118628,+0.5649570,+0.3844894,+0.1619965,0,0,0,0,0,0,0,0,0,0.0,0.0,0.0,0.0,0.0,+0.7272959,+0.6816826,-0.0709917,-0.0361883,0,0,0,0,0,0,0,0,0,0.0,0.0,0.0,0.0,0.0,
2.0408189,+0.7264715,+0.6494421,+0.2218148,+0.0355290,0,0,0,0,0,0,0,0,0,0.0,0.0,0.0,0.0,0.0,+0.7118705,+0.5648102,+0.3847255,+0.1619144,0,0,0,0,0,0,0,0,0,0.0,0.0,0.0,0.0,0.0,+0.7274097,+0.6815785,-0.0708353,-0.0361718,0,0,0,0,0,0,0,0,0,0.0,0.0,0.0,0.0,0.0,
2.0510351,+0.7264008,+0.6495149,+0.2218331,+0.0355314,0,0,0,0,0,0,0,0,0,0.0,0.0,0.0,0.0,0.0,+0.7118995,+0.5646012,+0.3850861,+0.1616580,0,0,0,0,0,0,0,0,0,0.0,0.0,0.0,0.0,0.0,+0.7276306,+0.6813998,-0.0703441,-0.0360526,0,0,0,0,0,0,0,0,0,0.0,0.0,0.0,0.0,0.0,
2.0610996,+0.7263909,+0.6495191,+0.2218560,+0.0355117,0,0,0,0,0,0,0,0,0,0.0,0.0,0.0,0.0,0.0,+0.7119147,+0.5645288,+0.3852254,+0.1615118,0,0,0,0,0,0,0,0,0,0.0,0.0,0.0,0.0,0.0,+0.7277395,+0.6813102,-0.0700966,-0.0360313,0,0,0,0,0,0,0,0,0,0.0,0.0,0.0,0.0,0.0,
2.0676971,+0.7264048,+0.6494955,+0.2218850,+0.0354792,0,0,0,0,0,0,0,0,0,0.0,0.0,0.0,0.0,0.0,+0.7119132,+0.5644469,+0.3854466,+0.1612772,0,0,0,0,0,0,0,0,0,0.0,0.0,0.0,0.0,0.0,+0.7279283,+0.6811419,-0.0697195,-0.0361299,0,0,0,0,0,0,0,0,0,0.0,0.0,0.0,0.0,0.0,
2.0810425,+0.7263905,+0.6495095,+0.2218911,+0.0354774,0,0,0,0,0,0,0,0,0,0.0,0.0,0.0,0.0,0.0,+0.7119153,+0.5644027,+0.3855805,+0.1611020,0,0,0,0,0,0,0,0,0,0.0,0.0,0.0,0.0,0.0,+0.7280211,+0.6810476,-0.0696302,-0.0362091,0,0,0,0,0,0,0,0,0,0.0,0.0,0.0,0.0,0.0,
2.0907989,+0.7264158,+0.6494767,+0.2219081,+0.0354534,0,0,0,0,0,0,0,0,0,0.0,0.0,0.0,0.0,0.0,+0.7119306,+0.5642732,+0.3858631,+0.1608113,0,0,0,0,0,0,0,0,0,0.0,0.0,0.0,0.0,0.0,+0.7280892,+0.6809356,-0.0697804,-0.0366554,0,0,0,0,0,0,0,0,0,0.0,0.0,0.0,0.0,0.0,
2.0984346,+0.7264318,+0.6494559,+0.2219189,+0.0354381,0,0,0,0,0,0,0,0,0,0.0,0.0,0.0,0.0,0.0,+0.7119584,+0.5641928,+0.3859852,+0.1606772,0,0,0,0,0,0,0,0,0,0.0,0.0,0.0,0.0,0.0,+0.7281010,+0.6809106,-0.0698274,-0.0367942,0,0,0,0,0,0,0,0,0,0.0,0.0,0.0,0.0,0.0,
2.1086553,+0.7264398,+0.6494519,+0.2219025,+0.0354520,0,0,0,0,0,0,0,0,0,0.0,0.0,0.0,0.0,0.0,+0.7119882,+0.5641058,+0.3861180,+0.1605315,0,0,0,0,0,0,0,0,0,0.0,0.0,0.0,0.0,0.0,+0.7281561,+0.6808559,-0.0697506,-0.0368608,0,0,0,0,0,0,0,0,0,0.0,0.0,0.0,0.0,0.0,
2.1188264,+0.7264334,+0.6494598,+0.2218995,+0.0354568,0,0,0,0,0,0,0,0,0,0.0,0.0,0.0,0.0,0.0,+0.7120167,+0.5639664,+0.3863859,+0.1602502,0,0,0,0,0,0,0,0,0,0.0,0.0,0.0,0.0,0.0,+0.7282900,+0.6807474,-0.0693960,-0.0368907,0,0,0,0,0,0,0,0,0,0.0,0.0,0.0,0.0,0.0,
2.1312503,+0.7264261,+0.6494631,+0.2219160,+0.0354427,0,0,0,0,0,0,0,0,0,0.0,0.0,0.0,0.0,0.0,+0.7120231,+0.5638490,+0.3866183,+0.1600745,0,0,0,0,0,0,0,0,0,0.0,0.0,0.0,0.0,0.0,+0.7283986,+0.6806358,-0.0693122,-0.0369639,0,0,0,0,0,0,0,0,0,0.0,0.0,0.0,0.0,0.0,
2.139447,+0.7264258,+0.6494592,+0.2219303,+0.0354288,0,0,0,0,0,0,0,0,0,0.0,0.0,0.0,0.0,0.0,+0.7118974,+0.5637570,+0.3870962,+0.1598018,0,0,0,0,0,0,0,0,0,0.0,0.0,0.0,0.0,0.0,+0.7286063,+0.6804062,-0.0692387,-0.0372343,0,0,0,0,0,0,0,0,0,0.0,0.0,0.0,0.0,0.0,
2.1497657,+0.7264317,+0.6494455,+0.2219551,+0.0354027,0,0,0,0,0,0,0,0,0,0.0,0.0,0.0,0.0,0.0,+0.7118644,+0.5637274,+0.3872728,+0.1596254,0,0,0,0,0,0,0,0,0,0.0,0.0,0.0,0.0,0.0,+0.7286910,+0.6803183,-0.0691845,-0.0372808,0,0,0,0,0,0,0,0,0,0.0,0.0,0.0,0.0,0.0,
2.1615946,+0.7264180,+0.6494519,+0.2219856,+0.0353767,0,0,0,0,0,0,0,0,0,0.0,0.0,0.0,0.0,0.0,+0.7119076,+0.5636516,+0.3874831,+0.1591896,0,0,0,0,0,0,0,0,0,0.0,0.0,0.0,0.0,0.0,+0.7288845,+0.6801183,-0.0690526,-0.0373949,0,0,0,0,0,0,0,0,0,0.0,0.0,0.0,0.0,0.0,
2.1702486,+0.7263899,+0.6494796,+0.2219968,+0.0353738,0,0,0,0,0,0,0,0,0,0.0,0.0,0.0,0.0,0.0,+0.7118909,+0.5636139,+0.3876246,+0.1590533,0,0,0,0,0,0,0,0,0,0.0,0.0,0.0,0.0,0.0,+0.7289742,+0.6800252,-0.0689932,-0.0374462,0,0,0,0,0,0,0,0,0,0.0,0.0,0.0,0.0,0.0,
2.1815945,+0.7263349,+0.6495261,+0.2220457,+0.0353416,0,0,0,0,0,0,0,0,0,0.0,0.0,0.0,0.0,0.0,+0.7118994,+0.5634875,+0.3879137,+0.1587575,0,0,0,0,0,0,0,0,0,0.0,0.0,0.0,0.0,0.0,+0.7291715,+0.6798211,-0.0688544,-0.0375664,0,0,0,0,0,0,0,0,0,0.0,0.0,0.0,0.0,0.0,
2.1922435,+0.7263129,+0.6495460,+0.2220608,+0.0353331,0,0,0,0,0,0,0,0,0,0.0,0.0,0.0,0.0,0.0,+0.7119257,+0.5634001,+0.3880556,+0.1586034,0,0,0,0,0,0,0,0,0,0.0,0.0,0.0,0.0,0.0,+0.7292491,+0.6797494,-0.0687261,-0.0375921,0,0,0,0,0,0,0,0,0,0.0,0.0,0.0,0.0,0.0,
2.2017776,+0.7263417,+0.6495288,+0.2220305,+0.0352503,0,0,0,0,0,0,0,0,0,0.0,0.0,0.0,0.0,0.0,+0.7119225,+0.5633425,+0.3882071,+0.1584514,0,0,0,0,0,0,0,0,0,0.0,0.0,0.0,0.0,0.0,+0.7293252,+0.6796708,-0.0686690,-0.0376418,0,0,0,0,0,0,0,0,0,0.0,0.0,0.0,0.0,0.0,
2.2119558,+0.7263210,+0.6495488,+0.2220401,+0.0352468,0,0,0,0,0,0,0,0,0,0.0,0.0,0.0,0.0,0.0,+0.7119166,+0.5631772,+0.3885842,+0.1581405,0,0,0,0,0,0,0,0,0,0.0,0.0,0.0,0.0,0.0,+0.7295390,+0.6794350,-0.0686400,-0.0378081,0,0,0,0,0,0,0,0,0,0.0,0.0,0.0,0.0,0.0,
2.2220967,+0.7262959,+0.6495679,+0.2220699,+0.0352247,0,0,0,0,0,0,0,0,0,0.0,0.0,0.0,0.0,0.0,+0.7118993,+0.5631382,+0.3887292,+0.1580006,0,0,0,0,0,0,0,0,0,0.0,0.0,0.0,0.0,0.0,+0.7296687,+0.6792827,-0.0686929,-0.0379469,0,0,0,0,0,0,0,0,0,0.0,0.0,0.0,0.0,0.0,
2.2316259,+0.7262673,+0.6495777,+0.2221446,+0.0351641,0,0,0,0,0,0,0,0,0,0.0,0.0,0.0,0.0,0.0,+0.7119827,+0.5630191,+0.3889257,+0.1575657,0,0,0,0,0,0,0,0,0,0.0,0.0,0.0,0.0,0.0,+0.7298120,+0.6791196,-0.0686787,-0.0381347,0,0,0,0,0,0,0,0,0,0.0,0.0,0.0,0.0,0.0,
2.2421806,+0.7262092,+0.6496442,+0.2221510,+0.0350933,0,0,0,0,0,0,0,0,0,0.0,0.0,0.0,0.0,0.0,+0.7120001,+0.5629566,+0.3890303,+0.1574527,0,0,0,0,0,0,0,0,0,0.0,0.0,0.0,0.0,0.0,+0.7298428,+0.6791016,-0.0685468,-0.0381023,0,0,0,0,0,0,0,0,0,0.0,0.0,0.0,0.0,0.0,
2.2524834,+0.7261274,+0.6497899,+0.2220303,+0.0348517,0,0,0,0,0,0,0,0,0,0.0,0.0,0.0,0.0,0.0,+0.7120764,+0.5626850,+0.3893368,+0.1573204,0,0,0,0,0,0,0,0,0,0.0,0.0,0.0,0.0,0.0,+0.7299805,+0.6790246,-0.0680143,-0.0377902,0,0,0,0,0,0,0,0,0,0.0,0.0,0.0,0.0,0.0,
2.262673,+0.7261506,+0.6497957,+0.2219568,+0.0347295,0,0,0,0,0,0,0,0,0,0.0,0.0,0.0,0.0,0.0,+0.7120863,+0.5625604,+0.3895310,+0.1572401,0,0,0,0,0,0,0,0,0,0.0,0.0,0.0,0.0,0.0,+0.7300594,+0.6789583,-0.0678553,-0.0377435,0,0,0,0,0,0,0,0,0,0.0,0.0,0.0,0.0,0.0,
2.2707898,+0.7260781,+0.6498799,+0.2219708,+0.0345779,0,0,0,0,0,0,0,0,0,0.0,0.0,0.0,0.0,0.0,+0.7120757,+0.5624670,+0.3897892,+0.1569826,0,0,0,0,0,0,0,0,0,0.0,0.0,0.0,0.0,0.0,+0.7302085,+0.6788050,-0.0677161,-0.0378665,0,0,0,0,0,0,0,0,0,0.0,0.0,0.0,0.0,0.0,
2.2810948,+0.7259359,+0.6499963,+0.2220955,+0.0345745,0,0,0,0,0,0,0,0,0,0.0,0.0,0.0,0.0,0.0,+0.7120814,+0.5624087,+0.3899150,+0.1568526,0,0,0,0,0,0,0,0,0,0.0,0.0,0.0,0.0,0.0,+0.7302852,+0.6787259,-0.0676478,-0.0379266,0,0,0,0,0,0,0,0,0,0.0,0.0,0.0,0.0,0.0,
2.2912467,+0.7257779,+0.6501150,+0.2222558,+0.0346298,0,0,0,0,0,0,0,0,0,0.0,0.0,0.0,0.0,0.0,+0.7120447,+0.5623894,+0.3900845,+0.1566678,0,0,0,0,0,0,0,0,0,0.0,0.0,0.0,0.0,0.0,+0.7303439,+0.6786663,-0.0675770,-0.0379899,0,0,0,0,0,0,0,0,0,0.0,0.0,0.0,0.0,0.0,
2.3019072,+0.7256989,+0.6501487,+0.2224103,+0.0346621,0,0,0,0,0,0,0,0,0,0.0,0.0,0.0,0.0,0.0,+0.7120388,+0.5623208,+0.3903500,+0.1562790,0,0,0,0,0,0,0,0,0,0.0,0.0,0.0,0.0,0.0,+0.7304739,+0.6785623,-0.0672376,-0.0379495,0,0,0,0,0,0,0,0,0,0.0,0.0,0.0,0.0,0.0,
2.3117096,+0.7256977,+0.6501467,+0.2224219,+0.0346511,0,0,0,0,0,0,0,0,0,0.0,0.0,0.0,0.0,0.0,+0.7120708,+0.5622523,+0.3904266,+0.1561881,0,0,0,0,0,0,0,0,0,0.0,0.0,0.0,0.0,0.0,+0.7305530,+0.6784914,-0.0670921,-0.0379532,0,0,0,0,0,0,0,0,0,0.0,0.0,0.0,0.0,0.0,
2.3224918,+0.7256714,+0.6501717,+0.2224355,+0.0346453,0,0,0,0,0,0,0,0,0,0.0,0.0,0.0,0.0,0.0,+0.7120645,+0.5621055,+0.3907261,+0.1559957,0,0,0,0,0,0,0,0,0,0.0,0.0,0.0,0.0,0.0,+0.7306397,+0.6783724,-0.0671971,-0.0382240,0,0,0,0,0,0,0,0,0,0.0,0.0,0.0,0.0,0.0,
2.3321085,+0.7256545,+0.6501904,+0.2224349,+0.0346508,0,0,0,0,0,0,0,0,0,0.0,0.0,0.0,0.0,0.0,+0.7120394,+0.5620043,+0.3909492,+0.1559162,0,0,0,0,0,0,0,0,0,0.0,0.0,0.0,0.0,0.0,+0.7306681,+0.6783114,-0.0673716,-0.0384573,0,0,0,0,0,0,0,0,0,0.0,0.0,0.0,0.0,0.0,
2.342643,+0.7256079,+0.6502352,+0.2224575,+0.0346421,0,0,0,0,0,0,0,0,0,0.0,0.0,0.0,0.0,0.0,+0.7121391,+0.5620376,+0.3909246,+0.1554013,0,0,0,0,0,0,0,0,0,0.0,0.0,0.0,0.0,0.0,+0.7307284,+0.6782012,-0.0676256,-0.0388052,0,0,0,0,0,0,0,0,0,0.0,0.0,0.0,0.0,0.0,
2.3531365,+0.7255536,+0.6502669,+0.2225414,+0.0346452,0,0,0,0,0,0,0,0,0,0.0,0.0,0.0,0.0,0.0,+0.7124828,+0.5622373,+0.3903135,+0.1546380,0,0,0,0,0,0,0,0,0,0.0,0.0,0.0,0.0,0.0,+0.7307717,+0.6781492,-0.0676449,-0.0388658,0,0,0,0,0,0,0,0,0,0.0,0.0,0.0,0.0,0.0,
2.3628019,+0.7254870,+0.6503091,+0.2226335,+0.0346567,0,0,0,0,0,0,0,0,0,0.0,0.0,0.0,0.0,0.0,+0.7127902,+0.5624100,+0.3897961,+0.1538964,0,0,0,0,0,0,0,0,0,0.0,0.0,0.0,0.0,0.0,+0.7308855,+0.6780288,-0.0676036,-0.0388989,0,0,0,0,0,0,0,0,0,0.0,0.0,0.0,0.0,0.0,
2.3732441,+0.7253596,+0.6503851,+0.2228200,+0.0346968,0,0,0,0,0,0,0,0,0,0.0,0.0,0.0,0.0,0.0,+0.7127114,+0.5625001,+0.3899821,+0.1534605,0,0,0,0,0,0,0,0,0,0.0,0.0,0.0,0.0,0.0,+0.7310278,+0.6778862,-0.0674911,-0.0389068,0,0,0,0,0,0,0,0,0,0.0,0.0,0.0,0.0,0.0,
2.3832767,+0.7253641,+0.6503776,+0.2228290,+0.0346867,0,0,0,0,0,0,0,0,0,0.0,0.0,0.0,0.0,0.0,+0.7125427,+0.5625253,+0.3902692,+0.1534211,0,0,0,0,0,0,0,0,0,0.0,0.0,0.0,0.0,0.0,+0.7311142,+0.6777964,-0.0674207,-0.0389684,0,0,0,0,0,0,0,0,0,0.0,0.0,0.0,0.0,0.0,
2.3925127,+0.7253155,+0.6503894,+0.2229519,+0.0346901,0,0,0,0,0,0,0,0,0,0.0,0.0,0.0,0.0,0.0,+0.7124627,+0.5624928,+0.3906190,+0.1530215,0,0,0,0,0,0,0,0,0,0.0,0.0,0.0,0.0,0.0,+0.7312490,+0.6776743,-0.0672341,-0.0388852,0,0,0,0,0,0,0,0,0,0.0,0.0,0.0,0.0,0.0,
2.4029262,+0.7252775,+0.6503905,+0.2230725,+0.0346907,0,0,0,0,0,0,0,0,0,0.0,0.0,0.0,0.0,0.0,+0.7124121,+0.5625095,+0.3907560,+0.1528459,0,0,0,0,0,0,0,0,0,0.0,0.0,0.0,0.0,0.0,+0.7313039,+0.6776328,-0.0670888,-0.0388256,0,0,0,0,0,0,0,0,0,0.0,0.0,0.0,0.0,0.0,
2.4128502,+0.7251995,+0.6503904,+0.2233241,+0.0347035,0,0,0,0,0,0,0,0,0,0.0,0.0,0.0,0.0,0.0,+0.7124438,+0.5624019,+0.3909259,+0.1526595,0,0,0,0,0,0,0,0,0,0.0,0.0,0.0,0.0,0.0,+0.7314306,+0.6775387,-0.0667344,-0.0386921,0,0,0,0,0,0,0,0,0,0.0,0.0,0.0,0.0,0.0,
2.4228831,+0.7251893,+0.6503929,+0.2233539,+0.0346771,0,0,0,0,0,0,0,0,0,0.0,0.0,0.0,0.0,0.0,+0.7124524,+0.5623525,+0.3910201,+0.1525599,0,0,0,0,0,0,0,0,0,0.0,0.0,0.0,0.0,0.0,+0.7315031,+0.6774763,-0.0666050,-0.0386378,0,0,0,0,0,0,0,0,0,0.0,0.0,0.0,0.0,0.0,
2.433383,+0.7251343,+0.6504340,+0.2234210,+0.0346269,0,0,0,0,0,0,0,0,0,0.0,0.0,0.0,0.0,0.0,+0.7124784,+0.5622386,+0.3912202,+0.1523450,0,0,0,0,0,0,0,0,0,0.0,0.0,0.0,0.0,0.0,+0.7316103,+0.6773837,-0.0663969,-0.0385896,0,0,0,0,0,0,0,0,0,0.0,0.0,0.0,0.0,0.0,
2.4430159,+0.7251416,+0.6504188,+0.2234458,+0.0346003,0,0,0,0,0,0,0,0,0,0.0,0.0,0.0,0.0,0.0,+0.7125039,+0.5621652,+0.3913251,+0.1522273,0,0,0,0,0,0,0,0,0,0.0,0.0,0.0,0.0,0.0,+0.7316984,+0.6773013,-0.0662810,-0.0385650,0,0,0,0,0,0,0,0,0,0.0,0.0,0.0,0.0,0.0,
2.4531506,+0.7251436,+0.6503904,+0.2235303,+0.0345453,0,0,0,0,0,0,0,0,0,0.0,0.0,0.0,0.0,0.0,+0.7124754,+0.5621055,+0.3914995,+0.1521323,0,0,0,0,0,0,0,0,0,0.0,0.0,0.0,0.0,0.0,+0.7317905,+0.6772189,-0.0661488,-0.0384924,0,0,0,0,0,0,0,0,0,0.0,0.0,0.0,0.0,0.0,
2.4636583,+0.7251149,+0.6503797,+0.2236764,+0.0344030,0,0,0,0,0,0,0,0,0,0.0,0.0,0.0,0.0,0.0,+0.7124874,+0.5620033,+0.3917098,+0.1519127,0,0,0,0,0,0,0,0,0,0.0,0.0,0.0,0.0,0.0,+0.7319681,+0.6770812,-0.0657312,-0.0382511,0,0,0,0,0,0,0,0,0,0.0,0.0,0.0,0.0,0.0,
2.4732212,+0.7251239,+0.6503600,+0.2237139,+0.0343407,0,0,0,0,0,0,0,0,0,0.0,0.0,0.0,0.0,0.0,+0.7125044,+0.5619341,+0.3918276,+0.1517854,0,0,0,0,0,0,0,0,0,0.0,0.0,0.0,0.0,0.0,+0.7320870,+0.6769794,-0.0655027,-0.0381684,0,0,0,0,0,0,0,0,0,0.0,0.0,0.0,0.0,0.0,
2.484256,+0.7251608,+0.6503078,+0.2237715,+0.0341743,0,0,0,0,0,0,0,0,0,0.0,0.0,0.0,0.0,0.0,+0.7125030,+0.5617811,+0.3921393,+0.1515530,0,0,0,0,0,0,0,0,0,0.0,0.0,0.0,0.0,0.0,+0.7322500,+0.6768196,-0.0652904,-0.0382396,0,0,0,0,0,0,0,0,0,0.0,0.0,0.0,0.0,0.0,
2.4882549,+0.7251428,+0.6503239,+0.2237844,+0.0341668,0,0,0,0,0,0,0,0,0,0.0,0.0,0.0,0.0,0.0,+0.7124805,+0.5616969,+0.3923283,+0.1514816,0,0,0,0,0,0,0,0,0,0.0,0.0,0.0,0.0,0.0,+0.7323213,+0.6767316,-0.0653357,-0.0383537,0,0,0,0,0,0,0,0,0,0.0,0.0,0.0,0.0,0.0,
2.4986114,+0.7251332,+0.6503263,+0.2238123,+0.0341421,0,0,0,0,0,0,0,0,0,0.0,0.0,0.0,0.0,0.0,+0.7124627,+0.5615160,+0.3926764,+0.1513342,0,0,0,0,0,0,0,0,0,0.0,0.0,0.0,0.0,0.0,+0.7324763,+0.6765709,-0.0652165,-0.0384335,0,0,0,0,0,0,0,0,0,0.0,0.0,0.0,0.0,0.0,
2.5140107,+0.7251430,+0.6503112,+0.2238272,+0.0341246,0,0,0,0,0,0,0,0,0,0.0,0.0,0.0,0.0,0.0,+0.7124738,+0.5614643,+0.3927681,+0.1512358,0,0,0,0,0,0,0,0,0,0.0,0.0,0.0,0.0,0.0,+0.7325362,+0.6765385,-0.0649506,-0.0383114,0,0,0,0,0,0,0,0,0,0.0,0.0,0.0,0.0,0.0,
2.5238332,+0.7251613,+0.6502926,+0.2238216,+0.0341248,0,0,0,0,0,0,0,0,0,0.0,0.0,0.0,0.0,0.0,+0.7124833,+0.5614100,+0.3928699,+0.1511277,0,0,0,0,0,0,0,0,0,0.0,0.0,0.0,0.0,0.0,+0.7325542,+0.6765527,-0.0646482,-0.0382286,0,0,0,0,0,0,0,0,0,0.0,0.0,0.0,0.0,0.0,
2.5289832,+0.7251588,+0.6503063,+0.2238122,+0.0339797,0,0,0,0,0,0,0,0,0,0.0,0.0,0.0,0.0,0.0,+0.7124906,+0.5613185,+0.3930654,+0.1509247,0,0,0,0,0,0,0,0,0,0.0,0.0,0.0,0.0,0.0,+0.7325218,+0.6765973,-0.0644463,-0.0384010,0,0,0,0,0,0,0,0,0,0.0,0.0,0.0,0.0,0.0,
2.5392045,+0.7252012,+0.6502938,+0.2237270,+0.0338738,0,0,0,0,0,0,0,0,0,0.0,0.0,0.0,0.0,0.0,+0.7125307,+0.5612470,+0.3931244,+0.1508472,0,0,0,0,0,0,0,0,0,0.0,0.0,0.0,0.0,0.0,+0.7324802,+0.6766129,-0.0646027,-0.0386566,0,0,0,0,0,0,0,0,0,0.0,0.0,0.0,0.0,0.0,
2.5546264,+0.7252305,+0.6502831,+0.2236768,+0.0337825,0,0,0,0,0,0,0,0,0,0.0,0.0,0.0,0.0,0.0,+0.7125797,+0.5611259,+0.3932761,+0.1506713,0,0,0,0,0,0,0,0,0,0.0,0.0,0.0,0.0,0.0,+0.7324601,+0.6765731,-0.0649497,-0.0391494,0,0,0,0,0,0,0,0,0,0.0,0.0,0.0,0.0,0.0,
2.5645481,+0.7252092,+0.6503079,+0.2236724,+0.0337931,0,0,0,0,0,0,0,0,0,0.0,0.0,0.0,0.0,0.0,+0.7125528,+0.5611074,+0.3933924,+0.1505638,0,0,0,0,0,0,0,0,0,0.0,0.0,0.0,0.0,0.0,+0.7325012,+0.6765295,-0.0649299,-0.0391661,0,0,0,0,0,0,0,0,0,0.0,0.0,0.0,0.0,0.0,
2.5742993,+0.7251721,+0.6503384,+0.2237075,+0.0337693,0,0,0,0,0,0,0,0,0,0.0,0.0,0.0,0.0,0.0,+0.7125704,+0.5610107,+0.3935712,+0.1503733,0,0,0,0,0,0,0,0,0,0.0,0.0,0.0,0.0,0.0,+0.7326599,+0.6764104,-0.0644882,-0.0389835,0,0,0,0,0,0,0,0,0,0.0,0.0,0.0,0.0,0.0,
2.5805248,+0.7251558,+0.6503552,+0.2237115,+0.0337701,0,0,0,0,0,0,0,0,0,0.0,0.0,0.0,0.0,0.0,+0.7125605,+0.5609918,+0.3936920,+0.1501748,0,0,0,0,0,0,0,0,0,0.0,0.0,0.0,0.0,0.0,+0.7327641,+0.6763239,-0.0642479,-0.0389228,0,0,0,0,0,0,0,0,0,0.0,0.0,0.0,0.0,0.0,
2.590727,+0.7251254,+0.6503730,+0.2237647,+0.0337265,0,0,0,0,0,0,0,0,0,0.0,0.0,0.0,0.0,0.0,+0.7125864,+0.5608861,+0.3939032,+0.1498922,0,0,0,0,0,0,0,0,0,0.0,0.0,0.0,0.0,0.0,+0.7328309,+0.6762443,-0.0641982,-0.0391310,0,0,0,0,0,0,0,0,0,0.0,0.0,0.0,0.0,0.0,
2.6046956,+0.7251170,+0.6503785,+0.2237774,+0.0337164,0,0,0,0,0,0,0,0,0,0.0,0.0,0.0,0.0,0.0,+0.7125810,+0.5608502,+0.3940013,+0.1497940,0,0,0,0,0,0,0,0,0,0.0,0.0,0.0,0.0,0.0,+0.7328665,+0.6761873,-0.0642974,-0.0392839,0,0,0,0,0,0,0,0,0,0.0,0.0,0.0,0.0,0.0,
2.6142903,+0.7251186,+0.6503744,+0.2237859,+0.0337076,0,0,0,0,0,0,0,0,0,0.0,0.0,0.0,0.0,0.0,+0.7126017,+0.5607867,+0.3940941,+0.1496902,0,0,0,0,0,0,0,0,0,0.0,0.0,0.0,0.0,0.0,+0.7329206,+0.6761149,-0.0643687,-0.0394065,0,0,0,0,0,0,0,0,0,0.0,0.0,0.0,0.0,0.0,
2.6243697,+0.7251151,+0.6503701,+0.2238134,+0.0336815,0,0,0,0,0,0,0,0,0,0.0,0.0,0.0,0.0,0.0,+0.7126004,+0.5607318,+0.3942865,+0.1493944,0,0,0,0,0,0,0,0,0,0.0,0.0,0.0,0.0,0.0,+0.7330175,+0.6760143,-0.0642618,-0.0395014,0,0,0,0,0,0,0,0,0,0.0,0.0,0.0,0.0,0.0,
2.634897,+0.7250851,+0.6503927,+0.2238491,+0.0336549,0,0,0,0,0,0,0,0,0,0.0,0.0,0.0,0.0,0.0,+0.7126533,+0.5606830,+0.3943423,+0.1491780,0,0,0,0,0,0,0,0,0,0.0,0.0,0.0,0.0,0.0,+0.7330936,+0.6759337,-0.0642241,-0.0395332,0,0,0,0,0,0,0,0,0,0.0,0.0,0.0,0.0,0.0,
2.6450707,+0.7250690,+0.6504018,+0.2238783,+0.0336309,0,0,0,0,0,0,0,0,0,0.0,0.0,0.0,0.0,0.0,+0.7126709,+0.5606565,+0.3945088,+0.1487527,0,0,0,0,0,0,0,0,0,0.0,0.0,0.0,0.0,0.0,+0.7332192,+0.6757729,-0.0643620,-0.0397263,0,0,0,0,0,0,0,0,0,0.0,0.0,0.0,0.0,0.0,
2.6546396,+0.7250576,+0.6504118,+0.2238866,+0.0336259,0,0,0,0,0,0,0,0,0,0.0,0.0,0.0,0.0,0.0,+0.7126635,+0.5606420,+0.3946165,+0.1485573,0,0,0,0,0,0,0,0,0,0.0,0.0,0.0,0.0,0.0,+0.7332832,+0.6756802,-0.0645317,-0.0398455,0,0,0,0,0,0,0,0,0,0.0,0.0,0.0,0.0,0.0,
2.664962,+0.7250103,+0.6504617,+0.2238942,+0.0336324,0,0,0,0,0,0,0,0,0,0.0,0.0,0.0,0.0,0.0,+0.7127225,+0.5605468,+0.3948165,+0.1481012,0,0,0,0,0,0,0,0,0,0.0,0.0,0.0,0.0,0.0,+0.7334359,+0.6755407,-0.0642980,-0.0397786,0,0,0,0,0,0,0,0,0,0.0,0.0,0.0,0.0,0.0,
2.6747935,+0.7249845,+0.6504826,+0.2239195,+0.0336149,0,0,0,0,0,0,0,0,0,0.0,0.0,0.0,0.0,0.0,+0.7127373,+0.5605000,+0.3949338,+0.1478939,0,0,0,0,0,0,0,0,0,0.0,0.0,0.0,0.0,0.0,+0.7335424,+0.6754894,-0.0637936,-0.0394950,0,0,0,0,0,0,0,0,0,0.0,0.0,0.0,0.0,0.0,
2.6825051,+0.7249797,+0.6504869,+0.2239229,+0.0336129,0,0,0,0,0,0,0,0,0,0.0,0.0,0.0,0.0,0.0,+0.7127596,+0.5604552,+0.3950182,+0.1477311,0,0,0,0,0,0,0,0,0,0.0,0.0,0.0,0.0,0.0,+0.7336111,+0.6754499,-0.0634895,-0.0393853,0,0,0,0,0,0,0,0,0,0.0,0.0,0.0,0.0,0.0,
2.6924928,+0.7249464,+0.6505082,+0.2239752,+0.0335710,0,0,0,0,0,0,0,0,0,0.0,0.0,0.0,0.0,0.0,+0.7128454,+0.5603318,+0.3951409,+0.1474565,0,0,0,0,0,0,0,0,0,0.0,0.0,0.0,0.0,0.0,+0.7336938,+0.6752952,-0.0638393,-0.0399292,0,0,0,0,0,0,0,0,0,0.0,0.0,0.0,0.0,0.0,
2.705485,+0.7249098,+0.6505401,+0.2240033,+0.0335539,0,0,0,0,0,0,0,0,0,0.0,0.0,0.0,0.0,0.0,+0.7129204,+0.5602503,+0.3951604,+0.1473515,0,0,0,0,0,0,0,0,0,0.0,0.0,0.0,0.0,0.0,+0.7337394,+0.6752176,-0.0639901,-0.0401605,0,0,0,0,0,0,0,0,0,0.0,0.0,0.0,0.0,0.0,
2.7128271,+0.7248582,+0.6505792,+0.2240637,+0.0335095,0,0,0,0,0,0,0,0,0,0.0,0.0,0.0,0.0,0.0,+0.7129553,+0.5601723,+0.3952695,+0.1471863,0,0,0,0,0,0,0,0,0,0.0,0.0,0.0,0.0,0.0,+0.7338656,+0.6750949,-0.0638578,-0.0401308,0,0,0,0,0,0,0,0,0,0.0,0.0,0.0,0.0,0.0,
2.7232539,+0.7248685,+0.6505647,+0.2240741,+0.0334961,0,0,0,0,0,0,0,0,0,0.0,0.0,0.0,0.0,0.0,+0.7129762,+0.5601184,+0.3953376,+0.1471072,0,0,0,0,0,0,0,0,0,0.0,0.0,0.0,0.0,0.0,+0.7339260,+0.6750461,-0.0637402,-0.0400324,0,0,0,0,0,0,0,0,0,0.0,0.0,0.0,0.0,0.0,
2.7353855,+0.7248651,+0.6505616,+0.2240976,+0.0334739,0,0,0,0,0,0,0,0,0,0.0,0.0,0.0,0.0,0.0,+0.7130371,+0.5599555,+0.3955901,+0.1467529,0,0,0,0,0,0,0,0,0,0.0,0.0,0.0,0.0,0.0,+0.7341072,+0.6748891,-0.0634259,-0.0398547,0,0,0,0,0,0,0,0,0,0.0,0.0,0.0,0.0,0.0,
2.7441828,+0.7248589,+0.6505617,+0.2241205,+0.0334531,0,0,0,0,0,0,0,0,0,0.0,0.0,0.0,0.0,0.0,+0.7130649,+0.5598781,+0.3957284,+0.1465399,0,0,0,0,0,0,0,0,0,0.0,0.0,0.0,0.0,0.0,+0.7342635,+0.6747461,-0.0632382,-0.0396967,0,0,0,0,0,0,0,0,0,0.0,0.0,0.0,0.0,0.0,
2.7541581,+0.7249033,+0.6505058,+0.2241448,+0.0334160,0,0,0,0,0,0,0,0,0,0.0,0.0,0.0,0.0,0.0,+0.7130742,+0.5597605,+0.3960267,+0.1461375,0,0,0,0,0,0,0,0,0,0.0,0.0,0.0,0.0,0.0,+0.7345696,+0.6744697,-0.0627954,-0.0394312,0,0,0,0,0,0,0,0,0,0.0,0.0,0.0,0.0,0.0,
2.7653413,+0.7248996,+0.6505068,+0.2241549,+0.0334071,0,0,0,0,0,0,0,0,0,0.0,0.0,0.0,0.0,0.0,+0.7130774,+0.5597090,+0.3961357,+0.1460240,0,0,0,0,0,0,0,0,0,0.0,0.0,0.0,0.0,0.0,+0.7346988,+0.6743463,-0.0626593,-0.0393525,0,0,0,0,0,0,0,0,0,0.0,0.0,0.0,0.0,0.0,
2.7745649,+0.7248942,+0.6505150,+0.2241478,+0.0334158,0,0,0,0,0,0,0,0,0,0.0,0.0,0.0,0.0,0.0,+0.7133113,+0.5595970,+0.3959294,+0.1458698,0,0,0,0,0,0,0,0,0,0.0,0.0,0.0,0.0,0.0,+0.7348097,+0.6742369,-0.0625556,-0.0393220,0,0,0,0,0,0,0,0,0,0.0,0.0,0.0,0.0,0.0,
2.7845382,+0.7248769,+0.6505223,+0.2241875,+0.0333816,0,0,0,0,0,0,0,0,0,0.0,0.0,0.0,0.0,0.0,+0.7137066,+0.5593656,+0.3957481,+0.1453154,0,0,0,0,0,0,0,0,0,0.0,0.0,0.0,0.0,0.0,+0.7349736,+0.6740475,-0.0625800,-0.0394646,0,0,0,0,0,0,0,0,0,0.0,0.0,0.0,0.0,0.0,
2.7958279,+0.7248901,+0.6505049,+0.2241970,+0.0333682,0,0,0,0,0,0,0,0,0,0.0,0.0,0.0,0.0,0.0,+0.7136009,+0.5593987,+0.3959376,+0.1451906,0,0,0,0,0,0,0,0,0,0.0,0.0,0.0,0.0,0.0,+0.7350518,+0.6739343,-0.0627535,-0.0396665,0,0,0,0,0,0,0,0,0,0.0,0.0,0.0,0.0,0.0,
2.8024717,+0.7249211,+0.6504676,+0.2242080,+0.0333483,0,0,0,0,0,0,0,0,0,0.0,0.0,0.0,0.0,0.0,+0.7137557,+0.5593222,+0.3959785,+0.1446116,0,0,0,0,0,0,0,0,0,0.0,0.0,0.0,0.0,0.0,+0.7351546,+0.6737388,-0.0633700,-0.0400985,0,0,0,0,0,0,0,0,0,0.0,0.0,0.0,0.0,0.0,
2.8156793,+0.7249140,+0.6504697,+0.2242275,+0.0333311,0,0,0,0,0,0,0,0,0,0.0,0.0,0.0,0.0,0.0,+0.7138470,+0.5592926,+0.3959776,+0.1442780,0,0,0,0,0,0,0,0,0,0.0,0.0,0.0,0.0,0.0,+0.7352194,+0.6736315,-0.0636684,-0.0402425,0,0,0,0,0,0,0,0,0,0.0,0.0,0.0,0.0,0.0,
2.8255325,+0.7249139,+0.6504648,+0.2242445,+0.0333142,0,0,0,0,0,0,0,0,0,0.0,0.0,0.0,0.0,0.0,+0.7142770,+0.5590957,+0.3956627,+0.1437754,0,0,0,0,0,0,0,0,0,0.0,0.0,0.0,0.0,0.0,+0.7354013,+0.6733701,-0.0642003,-0.0404484,0,0,0,0,0,0,0,0,0,0.0,0.0,0.0,0.0,0.0,
2.8362082,+0.7248974,+0.6504779,+0.2242616,+0.0333023,0,0,0,0,0,0,0,0,0,0.0,0.0,0.0,0.0,0.0,+0.7144247,+0.5589851,+0.3956200,+0.1435891,0,0,0,0,0,0,0,0,0,0.0,0.0,0.0,0.0,0.0,+0.7355141,+0.6732149,-0.0644675,-0.0405551,0,0,0,0,0,0,0,0,0,0.0,0.0,0.0,0.0,0.0,
2.8459291,+0.7248895,+0.6504831,+0.2242736,+0.0332928,0,0,0,0,0,0,0,0,0,0.0,0.0,0.0,0.0,0.0,+0.7144019,+0.5589397,+0.3957832,+0.1434292,0,0,0,0,0,0,0,0,0,0.0,0.0,0.0,0.0,0.0,+0.7356313,+0.6730580,-0.0647380,-0.0406020,0,0,0,0,0,0,0,0,0,0.0,0.0,0.0,0.0,0.0,
2.8565607,+0.7248772,+0.6504866,+0.2243075,+0.0332628,0,0,0,0,0,0,0,0,0,0.0,0.0,0.0,0.0,0.0,+0.7144483,+0.5588182,+0.3960185,+0.1430217,0,0,0,0,0,0,0,0,0,0.0,0.0,0.0,0.0,0.0,+0.7359428,+0.6727028,-0.0649664,-0.0404776,0,0,0,0,0,0,0,0,0,0.0,0.0,0.0,0.0,0.0,
2.8597986,+0.7248647,+0.6504941,+0.2243284,+0.0332458,0,0,0,0,0,0,0,0,0,0.0,0.0,0.0,0.0,0.0,+0.7145092,+0.5588341,+0.3959896,+0.1427348,0,0,0,0,0,0,0,0,0,0.0,0.0,0.0,0.0,0.0,+0.7361565,+0.6724905,-0.0648612,-0.0402884,0,0,0,0,0,0,0,0,0,0.0,0.0,0.0,0.0,0.0,
2.8686891,+0.7248520,+0.6504905,+0.2243884,+0.0331903,0,0,0,0,0,0,0,0,0,0.0,0.0,0.0,0.0,0.0,+0.7150465,+0.5586317,+0.3955768,+0.1419797,0,0,0,0,0,0,0,0,0,0.0,0.0,0.0,0.0,0.0,+0.7365164,+0.6721624,-0.0644662,-0.0398184,0,0,0,0,0,0,0,0,0,0.0,0.0,0.0,0.0,0.0,
2.886316,+0.7248351,+0.6505032,+0.2244083,+0.0331755,0,0,0,0,0,0,0,0,0,0.0,0.0,0.0,0.0,0.0,+0.7150877,+0.5586815,+0.3955358,+0.1416897,0,0,0,0,0,0,0,0,0,0.0,0.0,0.0,0.0,0.0,+0.7366832,+0.6720184,-0.0641860,-0.0396127,0,0,0,0,0,0,0,0,0,0.0,0.0,0.0,0.0,0.0,
2.8880005,+0.7248358,+0.6504936,+0.2244383,+0.0331457,0,0,0,0,0,0,0,0,0,0.0,0.0,0.0,0.0,0.0,+0.7153583,+0.5585482,+0.3955365,+0.1408451,0,0,0,0,0,0,0,0,0,0.0,0.0,0.0,0.0,0.0,+0.7370144,+0.6716922,-0.0639070,-0.0394384,0,0,0,0,0,0,0,0,0,0.0,0.0,0.0,0.0,0.0,
2.9028307,+0.7248369,+0.6504872,+0.2244556,+0.0331282,0,0,0,0,0,0,0,0,0,0.0,0.0,0.0,0.0,0.0,+0.7155190,+0.5584562,+0.3955432,+0.1403740,0,0,0,0,0,0,0,0,0,0.0,0.0,0.0,0.0,0.0,+0.7371947,+0.6714690,-0.0640717,-0.0396010,0,0,0,0,0,0,0,0,0,0.0,0.0,0.0,0.0,0.0,
2.9086531,+0.7248223,+0.6505002,+0.2244661,+0.0331221,0,0,0,0,0,0,0,0,0,0.0,0.0,0.0,0.0,0.0,+0.7158445,+0.5580842,+0.3958147,+0.1394252,0,0,0,0,0,0,0,0,0,0.0,0.0,0.0,0.0,0.0,+0.7374626,+0.6710984,-0.0646073,-0.0400217,0,0,0,0,0,0,0,0,0,0.0,0.0,0.0,0.0,0.0,
2.926946,+0.7248245,+0.6504976,+0.2244665,+0.0331210,0,0,0,0,0,0,0,0,0,0.0,0.0,0.0,0.0,0.0,+0.7159804,+0.5578653,+0.3960479,+0.1389405,0,0,0,0,0,0,0,0,0,0.0,0.0,0.0,0.0,0.0,+0.7376226,+0.6708918,-0.0648465,-0.0401506,0,0,0,0,0,0,0,0,0,0.0,0.0,0.0,0.0,0.0,
2.9286093,+0.7248169,+0.6505018,+0.2244810,+0.0331090,0,0,0,0,0,0,0,0,0,0.0,0.0,0.0,0.0,0.0,+0.7161126,+0.5577170,+0.3961923,+0.1384422,0,0,0,0,0,0,0,0,0,0.0,0.0,0.0,0.0,0.0,+0.7378167,+0.6706496,-0.0650555,-0.0402914,0,0,0,0,0,0,0,0,0,0.0,0.0,0.0,0.0,0.0,
2.938218,+0.7248290,+0.6504833,+0.2244991,+0.0330876,0,0,0,0,0,0,0,0,0,0.0,0.0,0.0,0.0,0.0,+0.7165372,+0.5573545,+0.3963105,+0.1373617,0,0,0,0,0,0,0,0,0,0.0,0.0,0.0,0.0,0.0,+0.7381682,+0.6701872,-0.0655501,-0.0407441,0,0,0,0,0,0,0,0,0,0.0,0.0,0.0,0.0,0.0,
2.948286,+0.7248461,+0.6504601,+0.2245132,+0.0330685,0,0,0,0,0,0,0,0,0,0.0,0.0,0.0,0.0,0.0,+0.7168266,+0.5571985,+0.3962200,+0.1367449,0,0,0,0,0,0,0,0,0,0.0,0.0,0.0,0.0,0.0,+0.7383614,+0.6699284,-0.0658583,-0.0410026,0,0,0,0,0,0,0,0,0,0.0,0.0,0.0,0.0,0.0,
2.9580963,+0.7248761,+0.6504577,+0.2244422,+0.0329407,0,0,0,0,0,0,0,0,0,0.0,0.0,0.0,0.0,0.0,+0.7174008,+0.5569884,+0.3959629,+0.1353266,0,0,0,0,0,0,0,0,0,0.0,0.0,0.0,0.0,0.0,+0.7388189,+0.6693683,-0.0661200,-0.0414840,0,0,0,0,0,0,0,0,0,0.0,0.0,0.0,0.0,0.0,
2.9683154,+0.7249007,+0.6504419,+0.2244211,+0.0328562,0,0,0,0,0,0,0,0,0,0.0,0.0,0.0,0.0,0.0,+0.7176937,+0.5568771,+0.3958368,+0.1345986,0,0,0,0,0,0,0,0,0,0.0,0.0,0.0,0.0,0.0,+0.7391547,+0.6690082,-0.0659282,-0.0416165,0,0,0,0,0,0,0,0,0,0.0,0.0,0.0,0.0,0.0,
2.9869318,+0.7249287,+0.6504202,+0.2244033,+0.0327883,0,0,0,0,0,0,0,0,0,0.0,0.0,0.0,0.0,0.0,+0.7183148,+0.5566362,+0.3956209,+0.1329072,0,0,0,0,0,0,0,0,0,0.0,0.0,0.0,0.0,0.0,+0.7397963,+0.6682385,-0.0660826,-0.0423315,0,0,0,0,0,0,0,0,0,0.0,0.0,0.0,0.0,0.0,
2.9880419,+0.7249359,+0.6504091,+0.2244139,+0.0327757,0,0,0,0,0,0,0,0,0,0.0,0.0,0.0,0.0,0.0,+0.7188256,+0.5562725,+0.3954477,+0.1321810,0,0,0,0,0,0,0,0,0,0.0,0.0,0.0,0.0,0.0,+0.7401176,+0.6677932,-0.0665449,-0.0430120,0,0,0,0,0,0,0,0,0,0.0,0.0,0.0,0.0,0.0,
3.0032441,+0.7249367,+0.6504101,+0.2244078,+0.0327815,0,0,0,0,0,0,0,0,0,0.0,0.0,0.0,0.0,0.0,+0.7194075,+0.5558242,+0.3952815,+0.1313957,0,0,0,0,0,0,0,0,0,0.0,0.0,0.0,0.0,0.0,+0.7404411,+0.6673507,-0.0669522,-0.0436736,0,0,0,0,0,0,0,0,0,0.0,0.0,0.0,0.0,0.0,
3.0194832,+0.7250388,+0.6503324,+0.2243077,+0.0327513,0,0,0,0,0,0,0,0,0,0.0,0.0,0.0,0.0,0.0,+0.7205145,+0.5551612,+0.3949233,+0.1291915,0,0,0,0,0,0,0,0,0,0.0,0.0,0.0,0.0,0.0,+0.7413691,+0.6662205,-0.0673563,-0.0445569,0,0,0,0,0,0,0,0,0,0.0,0.0,0.0,0.0,0.0,
3.0202606,+0.7251229,+0.6502637,+0.2242345,+0.0327551,0,0,0,0,0,0,0,0,0,0.0,0.0,0.0,0.0,0.0,+0.7212208,+0.5547836,+0.3945850,+0.1279003,0,0,0,0,0,0,0,0,0,0.0,0.0,0.0,0.0,0.0,+0.7418920,+0.6655912,-0.0675272,-0.0449970,0,0,0,0,0,0,0,0,0,0.0,0.0,0.0,0.0,0.0,
3.0286014,+0.7253300,+0.6500931,+0.2240645,+0.0327186,0,0,0,0,0,0,0,0,0,0.0,0.0,0.0,0.0,0.0,+0.7228157,+0.5537843,+0.3938942,+0.1253310,0,0,0,0,0,0,0,0,0,0.0,0.0,0.0,0.0,0.0,+0.7430277,+0.6641822,-0.0681610,-0.0461085,0,0,0,0,0,0,0,0,0,0.0,0.0,0.0,0.0,0.0,
3.0476062,+0.7254456,+0.6499988,+0.2239730,+0.0326550,0,0,0,0,0,0,0,0,0,0.0,0.0,0.0,0.0,0.0,+0.7237055,+0.5531663,+0.3935212,+0.1240903,0,0,0,0,0,0,0,0,0,0.0,0.0,0.0,0.0,0.0,+0.7436693,+0.6634116,-0.0683305,-0.0466040,0,0,0,0,0,0,0,0,0,0.0,0.0,0.0,0.0,0.0,
3.0486303,+0.7257584,+0.6497495,+0.2237162,+0.0324261,0,0,0,0,0,0,0,0,0,0.0,0.0,0.0,0.0,0.0,+0.7257080,+0.5518507,+0.3925141,+0.1214144,0,0,0,0,0,0,0,0,0,0.0,0.0,0.0,0.0,0.0,+0.7452443,+0.6615962,-0.0683093,-0.0472782,0,0,0,0,0,0,0,0,0,0.0,0.0,0.0,0.0,0.0,
3.0585826,+0.7259225,+0.6496215,+0.2235731,+0.0323026,0,0,0,0,0,0,0,0,0,0.0,0.0,0.0,0.0,0.0,+0.7267658,+0.5512980,+0.3918613,+0.1196938,0,0,0,0,0,0,0,0,0,0.0,0.0,0.0,0.0,0.0,+0.7461409,+0.6605358,-0.0684668,-0.0477338,0,0,0,0,0,0,0,0,0,0.0,0.0,0.0,0.0,0.0,
3.0779448,+0.7262495,+0.6493375,+0.2233702,+0.0320672,0,0,0,0,0,0,0,0,0,0.0,0.0,0.0,0.0,0.0,+0.7290209,+0.5505781,+0.3900031,+0.1152825,0,0,0,0,0,0,0,0,0,0.0,0.0,0.0,0.0,0.0,+0.7481437,+0.6580764,-0.0693408,-0.0490744,0,0,0,0,0,0,0,0,0,0.0,0.0,0.0,0.0,0.0,
3.0795698,+0.7264303,+0.6491939,+0.2232191,+0.0319314,0,0,0,0,0,0,0,0,0,0.0,0.0,0.0,0.0,0.0,+0.7303306,+0.5500321,+0.3889861,+0.1130121,0,0,0,0,0,0,0,0,0,0.0,0.0,0.0,0.0,0.0,+0.7493019,+0.6566380,-0.0699127,-0.0498547,0,0,0,0,0,0,0,0,0,0.0,0.0,0.0,0.0,0.0,
3.0976347,+0.7266226,+0.6490463,+0.2230482,+0.0317501,0,0,0,0,0,0,0,0,0,0.0,0.0,0.0,0.0,0.0,+0.7318273,+0.5492223,+0.3879535,+0.1107964,0,0,0,0,0,0,0,0,0,0.0,0.0,0.0,0.0,0.0,+0.7506085,+0.6550096,-0.0705529,-0.0507107,0,0,0,0,0,0,0,0,0,0.0,0.0,0.0,0.0,0.0,
3.1082167,+0.7270555,+0.6487262,+0.2226314,+0.0313025,0,0,0,0,0,0,0,0,0,0.0,0.0,0.0,0.0,0.0,+0.7350182,+0.5472441,+0.3858655,+0.1066763,0,0,0,0,0,0,0,0,0,0.0,0.0,0.0,0.0,0.0,+0.7535583,+0.6513033,-0.0721161,-0.0524719,0,0,0,0,0,0,0,0,0,0.0,0.0,0.0,0.0,0.0,
3.1180591,+0.7272744,+0.6485683,+0.2224195,+0.0309954,0,0,0,0,0,0,0,0,0,0.0,0.0,0.0,0.0,0.0,+0.7366740,+0.5461782,+0.3848135,+0.1044962,0,0,0,0,0,0,0,0,0,0.0,0.0,0.0,0.0,0.0,+0.7551730,+0.6492541,-0.0730371,-0.0533708,0,0,0,0,0,0,0,0,0,0.0,0.0,0.0,0.0,0.0,
3.1280989,+0.7276320,+0.6483628,+0.2219494,+0.0302619,0,0,0,0,0,0,0,0,0,0.0,0.0,0.0,0.0,0.0,+0.7402623,+0.5439023,+0.3825023,+0.0993678,0,0,0,0,0,0,0,0,0,0.0,0.0,0.0,0.0,0.0,+0.7583969,+0.6449395,-0.0760247,-0.0557448,0,0,0,0,0,0,0,0,0,0.0,0.0,0.0,0.0,0.0,
3.1381142,+0.7278112,+0.6482617,+0.2217216,+0.0297878,0,0,0,0,0,0,0,0,0,0.0,0.0,0.0,0.0,0.0,+0.7422101,+0.5428116,+0.3810467,+0.0963485,0,0,0,0,0,0,0,0,0,0.0,0.0,0.0,0.0,0.0,+0.7600962,+0.6425024,-0.0784828,-0.0573131,0,0,0,0,0,0,0,0,0,0.0,0.0,0.0,0.0,0.0,
3.1487899,+0.7282571,+0.6479530,+0.2213000,+0.0287199,0,0,0,0,0,0,0,0,0,0.0,0.0,0.0,0.0,0.0,+0.7466077,+0.5403827,+0.3775865,+0.0893979,0,0,0,0,0,0,0,0,0,0.0,0.0,0.0,0.0,0.0,+0.7637644,+0.6369380,-0.0851485,-0.0610218,0,0,0,0,0,0,0,0,0,0.0,0.0,0.0,0.0,0.0,
3.1581642,+0.7284174,+0.6478748,+0.2210677,+0.0282052,0,0,0,0,0,0,0,0,0,0.0,0.0,0.0,0.0,0.0,+0.7490118,+0.5388354,+0.3758885,+0.0857072,0,0,0,0,0,0,0,0,0,0.0,0.0,0.0,0.0,0.0,+0.7657892,+0.6337880,-0.0889728,-0.0629572,0,0,0,0,0,0,0,0,0,0.0,0.0,0.0,0.0,0.0,
3.1679575,+0.7287200,+0.6477708,+0.2205067,+0.0271485,0,0,0,0,0,0,0,0,0,0.0,0.0,0.0,0.0,0.0,+0.7539604,+0.5351418,+0.3728716,+0.0783182,0,0,0,0,0,0,0,0,0,0.0,0.0,0.0,0.0,0.0,+0.7702609,+0.6269810,-0.0960775,-0.0660459,0,0,0,0,0,0,0,0,0,0.0,0.0,0.0,0.0,0.0,
3.1785917,+0.7288567,+0.6477948,+0.2200601,+0.0265200,0,0,0,0,0,0,0,0,0,0.0,0.0,0.0,0.0,0.0,+0.7565755,+0.5328589,+0.3715563,+0.0748395,0,0,0,0,0,0,0,0,0,0.0,0.0,0.0,0.0,0.0,+0.7727497,+0.6232868,-0.0993051,-0.0671560,0,0,0,0,0,0,0,0,0,0.0,0.0,0.0,0.0,0.0,
3.1801863,+0.7289573,+0.6478853,+0.2195486,+0.0257751,0,0,0,0,0,0,0,0,0,0.0,0.0,0.0,0.0,0.0,+0.7595205,+0.5302342,+0.3699990,+0.0712815,0,0,0,0,0,0,0,0,0,0.0,0.0,0.0,0.0,0.0,+0.7752758,+0.6194665,-0.1027110,-0.0682582,0,0,0,0,0,0,0,0,0,0.0,0.0,0.0,0.0,0.0,
3.1897307,+0.7292412,+0.6479791,+0.2185041,+0.0242138,0,0,0,0,0,0,0,0,0,0.0,0.0,0.0,0.0,0.0,+0.7662541,+0.5243784,+0.3657872,+0.0638868,0,0,0,0,0,0,0,0,0,0.0,0.0,0.0,0.0,0.0,+0.7803228,+0.6115537,-0.1101508,-0.0704637,0,0,0,0,0,0,0,0,0,0.0,0.0,0.0,0.0,0.0,
3.210011,+0.7293773,+0.6480114,+0.2180380,+0.0234405,0,0,0,0,0,0,0,0,0,0.0,0.0,0.0,0.0,0.0,+0.7697232,+0.5215175,+0.3632342,+0.0600553,0,0,0,0,0,0,0,0,0,0.0,0.0,0.0,0.0,0.0,+0.7829940,+0.6073216,-0.1139489,-0.0713899,0,0,0,0,0,0,0,0,0,0.0,0.0,0.0,0.0,0.0,
3.2113491,+0.7294960,+0.6482173,+0.2171824,+0.0219475,0,0,0,0,0,0,0,0,0,0.0,0.0,0.0,0.0,0.0,+0.7761591,+0.5165343,+0.3578643,+0.0519858,0,0,0,0,0,0,0,0,0,0.0,0.0,0.0,0.0,0.0,+0.7883426,+0.5985094,-0.1222788,-0.0731454,0,0,0,0,0,0,0,0,0,0.0,0.0,0.0,0.0,0.0,
3.2289989,+0.7295724,+0.6483028,+0.2167432,+0.0212143,0,0,0,0,0,0,0,0,0,0.0,0.0,0.0,0.0,0.0,+0.7789468,+0.5143158,+0.3555276,+0.0481782,0,0,0,0,0,0,0,0,0,0.0,0.0,0.0,0.0,0.0,+0.7909138,+0.5939872,-0.1270625,-0.0740933,0,0,0,0,0,0,0,0,0,0.0,0.0,0.0,0.0,0.0,
3.2305286,+0.7298691,+0.6483411,+0.2157828,+0.0195618,0,0,0,0,0,0,0,0,0,0.0,0.0,0.0,0.0,0.0,+0.7850270,+0.5096115,+0.3499296,+0.0397234,0,0,0,0,0,0,0,0,0,0.0,0.0,0.0,0.0,0.0,+0.7961812,+0.5840732,-0.1382989,-0.0763366,0,0,0,0,0,0,0,0,0,0.0,0.0,0.0,0.0,0.0,
3.2402997,+0.7300713,+0.6483222,+0.2152315,+0.0186976,0,0,0,0,0,0,0,0,0,0.0,0.0,0.0,0.0,0.0,+0.7888177,+0.5066189,+0.3462835,+0.0345214,0,0,0,0,0,0,0,0,0,0.0,0.0,0.0,0.0,0.0,+0.7988313,+0.5786851,-0.1448580,-0.0775126,0,0,0,0,0,0,0,0,0,0.0,0.0,0.0,0.0,0.0,
3.2513452,+0.7302303,+0.6483448,+0.2146961,+0.0178424,0,0,0,0,0,0,0,0,0,0.0,0.0,0.0,0.0,0.0,+0.7926206,+0.5033826,+0.3427627,+0.0295355,0,0,0,0,0,0,0,0,0,0.0,0.0,0.0,0.0,0.0,+0.8014697,+0.5731922,-0.1514738,-0.0784394,0,0,0,0,0,0,0,0,0,0.0,0.0,0.0,0.0,0.0,
3.2686538,+0.7305648,+0.6483749,+0.2135985,+0.0161490,0,0,0,0,0,0,0,0,0,0.0,0.0,0.0,0.0,0.0,+0.7988825,+0.4972752,+0.3377606,+0.0205401,0,0,0,0,0,0,0,0,0,0.0,0.0,0.0,0.0,0.0,+0.8071459,+0.5617805,-0.1633579,-0.0789461,0,0,0,0,0,0,0,0,0,0.0,0.0,0.0,0.0,0.0,
3.2788982,+0.7307130,+0.6484159,+0.2130288,+0.0152999,0,0,0,0,0,0,0,0,0,0.0,0.0,0.0,0.0,0.0,+0.8024306,+0.4939691,+0.3344459,+0.0156655,0,0,0,0,0,0,0,0,0,0.0,0.0,0.0,0.0,0.0,+0.8100508,+0.5560112,-0.1687736,-0.0786429,0,0,0,0,0,0,0,0,0,0.0,0.0,0.0,0.0,0.0,
3.2890444,+0.7311383,+0.6483554,+0.2118658,+0.0135996,0,0,0,0,0,0,0,0,0,0.0,0.0,0.0,0.0,0.0,+0.8088313,+0.4876113,+0.3286297,+0.0054583,0,0,0,0,0,0,0,0,0,0.0,0.0,0.0,0.0,0.0,+0.8156205,+0.5447227,-0.1790387,-0.0773666,0,0,0,0,0,0,0,0,0,0.0,0.0,0.0,0.0,0.0,
3.2989011,+0.7313706,+0.6483156,+0.2112405,+0.0127023,0,0,0,0,0,0,0,0,0,0.0,0.0,0.0,0.0,0.0,+0.8123459,+0.4842940,+0.3248897,+0.0005842,0,0,0,0,0,0,0,0,0,0.0,0.0,0.0,0.0,0.0,+0.8183879,+0.5390817,-0.1838639,-0.0763307,0,0,0,0,0,0,0,0,0,0.0,0.0,0.0,0.0,0.0,
3.3095754,+0.7318964,+0.6481806,+0.2099318,+0.0108714,0,0,0,0,0,0,0,0,0,0.0,0.0,0.0,0.0,0.0,+0.8181394,+0.4785739,+0.3186511,-0.0087495,0,0,0,0,0,0,0,0,0,0.0,0.0,0.0,0.0,0.0,+0.8241699,+0.5273934,-0.1929618,-0.0732524,0,0,0,0,0,0,0,0,0,0.0,0.0,0.0,0.0,0.0,
3.3197884,+0.7322041,+0.6480491,+0.2093107,+0.0099325,0,0,0,0,0,0,0,0,0,0.0,0.0,0.0,0.0,0.0,+0.8208945,+0.4757169,+0.3156587,-0.0136126,0,0,0,0,0,0,0,0,0,0.0,0.0,0.0,0.0,0.0,+0.8272837,+0.5213423,-0.1968443,-0.0711077,0,0,0,0,0,0,0,0,0,0.0,0.0,0.0,0.0,0.0,
3.3297281,+0.7327597,+0.6478050,+0.2081989,+0.0080668,0,0,0,0,0,0,0,0,0,0.0,0.0,0.0,0.0,0.0,+0.8263102,+0.4697702,+0.3099080,-0.0220099,0,0,0,0,0,0,0,0,0,0.0,0.0,0.0,0.0,0.0,+0.8340619,+0.5090951,-0.2020728,-0.0657994,0,0,0,0,0,0,0,0,0,0.0,0.0,0.0,0.0,0.0,
3.3401674,+0.7330305,+0.6476678,+0.2077060,+0.0071374,0,0,0,0,0,0,0,0,0,0.0,0.0,0.0,0.0,0.0,+0.8288350,+0.4668506,+0.3072702,-0.0258481,0,0,0,0,0,0,0,0,0,0.0,0.0,0.0,0.0,0.0,+0.8375295,+0.5028332,-0.2042702,-0.0630612,0,0,0,0,0,0,0,0,0,0.0,0.0,0.0,0.0,0.0,
3.3428816,+0.7332988,+0.6475208,+0.2072453,+0.0062557,0,0,0,0,0,0,0,0,0,0.0,0.0,0.0,0.0,0.0,+0.8315883,+0.4634539,+0.3046288,-0.0295403,0,0,0,0,0,0,0,0,0,0.0,0.0,0.0,0.0,0.0,+0.8409524,+0.4962963,-0.2069365,-0.0605507,0,0,0,0,0,0,0,0,0,0.0,0.0,0.0,0.0,0.0,
3.3506582,+0.7337657,+0.6473018,+0.2063176,+0.0046258,0,0,0,0,0,0,0,0,0,0.0,0.0,0.0,0.0,0.0,+0.8363948,+0.4573174,+0.2999145,-0.0368223,0,0,0,0,0,0,0,0,0,0.0,0.0,0.0,0.0,0.0,+0.8476340,+0.4828499,-0.2126972,-0.0559696,0,0,0,0,0,0,0,0,0,0.0,0.0,0.0,0.0,0.0,
3.3696805,+0.7339870,+0.6471975,+0.2058729,+0.0038415,0,0,0,0,0,0,0,0,0,0.0,0.0,0.0,0.0,0.0,+0.8383588,+0.4549090,+0.2975650,-0.0408356,0,0,0,0,0,0,0,0,0,0.0,0.0,0.0,0.0,0.0,+0.8510162,+0.4761523,-0.2148975,-0.0535674,0,0,0,0,0,0,0,0,0,0.0,0.0,0.0,0.0,0.0,
3.3707032,+0.7344291,+0.6469507,+0.2050947,+0.0022223,0,0,0,0,0,0,0,0,0,0.0,0.0,0.0,0.0,0.0,+0.8421270,+0.4504205,+0.2925638,-0.0484764,0,0,0,0,0,0,0,0,0,0.0,0.0,0.0,0.0,0.0,+0.8579794,+0.4627382,-0.2177283,-0.0483659,0,0,0,0,0,0,0,0,0,0.0,0.0,0.0,0.0,0.0,
3.3811276,+0.7346420,+0.6468209,+0.2047484,+0.0014101,0,0,0,0,0,0,0,0,0,0.0,0.0,0.0,0.0,0.0,+0.8437543,+0.4482890,+0.2905246,-0.0520684,0,0,0,0,0,0,0,0,0,0.0,0.0,0.0,0.0,0.0,+0.8613762,+0.4560497,-0.2189660,-0.0458649,0,0,0,0,0,0,0,0,0,0.0,0.0,0.0,0.0,0.0,
3.3923188,+0.7351503,+0.6464820,+0.2039978,-0.0003231,0,0,0,0,0,0,0,0,0,0.0,0.0,0.0,0.0,0.0,+0.8474019,+0.4430785,+0.2868470,-0.0575364,0,0,0,0,0,0,0,0,0,0.0,0.0,0.0,0.0,0.0,+0.8675427,+0.4429962,-0.2222316,-0.0416804,0,0,0,0,0,0,0,0,0,0.0,0.0,0.0,0.0,0.0,
3.4045168,+0.7354424,+0.6462817,+0.2035750,-0.0012854,0,0,0,0,0,0,0,0,0,0.0,0.0,0.0,0.0,0.0,+0.8492002,+0.4399844,+0.2857937,-0.0599558,0,0,0,0,0,0,0,0,0,0.0,0.0,0.0,0.0,0.0,+0.8703291,+0.4366549,-0.2241887,-0.0399918,0,0,0,0,0,0,0,0,0,0.0,0.0,0.0,0.0,0.0,
3.4198198,+0.7357921,+0.6460238,+0.2031208,-0.0022961,0,0,0,0,0,0,0,0,0,0.0,0.0,0.0,0.0,0.0,+0.8511523,+0.4367971,+0.2845009,-0.0617021,0,0,0,0,0,0,0,0,0,0.0,0.0,0.0,0.0,0.0,+0.8730009,+0.4304215,-0.2261287,-0.0383739,0,0,0,0,0,0,0,0,0,0.0,0.0,0.0,0.0,0.0,
3.4254936,+0.7364986,+0.6454530,+0.2023412,-0.0042698,0,0,0,0,0,0,0,0,0,0.0,0.0,0.0,0.0,0.0,+0.8550142,+0.4304055,+0.2819976,-0.0646462,0,0,0,0,0,0,0,0,0,0.0,0.0,0.0,0.0,0.0,+0.8779320,+0.4189903,-0.2290450,-0.0349405,0,0,0,0,0,0,0,0,0,0.0,0.0,0.0,0.0,0.0,
3.4315283,+0.7367578,+0.6452167,+0.2021304,-0.0051680,0,0,0,0,0,0,0,0,0,0.0,0.0,0.0,0.0,0.0,+0.8568754,+0.4271817,+0.2808786,-0.0662377,0,0,0,0,0,0,0,0,0,0.0,0.0,0.0,0.0,0.0,+0.8805572,+0.4135115,-0.2292176,-0.0329621,0,0,0,0,0,0,0,0,0,0.0,0.0,0.0,0.0,0.0,
3.4412668,+0.7372549,+0.6447124,+0.2018827,-0.0066744,0,0,0,0,0,0,0,0,0,0.0,0.0,0.0,0.0,0.0,+0.8605806,+0.4209064,+0.2781832,-0.0696641,0,0,0,0,0,0,0,0,0,0.0,0.0,0.0,0.0,0.0,+0.8859452,+0.4034165,-0.2270078,-0.0287003,0,0,0,0,0,0,0,0,0,0.0,0.0,0.0,0.0,0.0,
3.4516857,+0.7375728,+0.6443773,+0.2017646,-0.0074358,0,0,0,0,0,0,0,0,0,0.0,0.0,0.0,0.0,0.0,+0.8621619,+0.4182501,+0.2768100,-0.0715542,0,0,0,0,0,0,0,0,0,0.0,0.0,0.0,0.0,0.0,+0.8884906,+0.3988478,-0.2253657,-0.0267442,0,0,0,0,0,0,0,0,0,0.0,0.0,0.0,0.0,0.0,
3.4625716,+0.7383081,+0.6436204,+0.2014238,-0.0090728,0,0,0,0,0,0,0,0,0,0.0,0.0,0.0,0.0,0.0,+0.8650205,+0.4132915,+0.2746234,-0.0742409,0,0,0,0,0,0,0,0,0,0.0,0.0,0.0,0.0,0.0,+0.8928559,+0.3907521,-0.2225986,-0.0238937,0,0,0,0,0,0,0,0,0,0.0,0.0,0.0,0.0,0.0,
3.4799892,+0.7387194,+0.6432307,+0.2011207,-0.0099206,0,0,0,0,0,0,0,0,0,0.0,0.0,0.0,0.0,0.0,+0.8664023,+0.4108919,+0.2737148,-0.0748003,0,0,0,0,0,0,0,0,0,0.0,0.0,0.0,0.0,0.0,+0.8946974,+0.3872943,-0.2213440,-0.0229452,0,0,0,0,0,0,0,0,0,0.0,0.0,0.0,0.0,0.0,
3.4900658,+0.7395328,+0.6424205,+0.2006417,-0.0114002,0,0,0,0,0,0,0,0,0,0.0,0.0,0.0,0.0,0.0,+0.8694282,+0.4059381,+0.2711788,-0.0759653,0,0,0,0,0,0,0,0,0,0.0,0.0,0.0,0.0,0.0,+0.8980729,+0.3816686,-0.2175618,-0.0214699,0,0,0,0,0,0,0,0,0,0.0,0.0,0.0,0.0,0.0,
3.5005292,+0.7397972,+0.6421149,+0.2006140,-0.0119432,0,0,0,0,0,0,0,0,0,0.0,0.0,0.0,0.0,0.0,+0.8709103,+0.4036165,+0.2697121,-0.0765775,0,0,0,0,0,0,0,0,0,0.0,0.0,0.0,0.0,0.0,+0.8997204,+0.3792807,-0.2149671,-0.0209405,0,0,0,0,0,0,0,0,0,0.0,0.0,0.0,0.0,0.0,
3.5104619,+0.7399893,+0.6418653,+0.2006807,-0.0123333,0,0,0,0,0,0,0,0,0,0.0,0.0,0.0,0.0,0.0,+0.8722626,+0.4014791,+0.2684192,-0.0769650,0,0,0,0,0,0,0,0,0,0.0,0.0,0.0,0.0,0.0,+0.9012784,+0.3770695,-0.2123469,-0.0206075,0,0,0,0,0,0,0,0,0,0.0,0.0,0.0,0.0,0.0,
3.5205469,+0.7403210,+0.6414012,+0.2009028,-0.0129385,0,0,0,0,0,0,0,0,0,0.0,0.0,0.0,0.0,0.0,+0.8746757,+0.3975728,+0.2661705,-0.0776628,0,0,0,0,0,0,0,0,0,0.0,0.0,0.0,0.0,0.0,+0.9037338,+0.3733501,-0.2084225,-0.0208577,0,0,0,0,0,0,0,0,0,0.0,0.0,0.0,0.0,0.0,
3.5312718,+0.7405016,+0.6411447,+0.2010386,-0.0132067,0,0,0,0,0,0,0,0,0,0.0,0.0,0.0,0.0,0.0,+0.8758166,+0.3957378,+0.2650518,-0.0780025,0,0,0,0,0,0,0,0,0,0.0,0.0,0.0,0.0,0.0,+0.9045049,+0.3720334,-0.2073667,-0.0214728,0,0,0,0,0,0,0,0,0,0.0,0.0,0.0,0.0,0.0,
3.5412634,+0.7408976,+0.6406072,+0.2012638,-0.0136405,0,0,0,0,0,0,0,0,0,0.0,0.0,0.0,0.0,0.0,+0.8781254,+0.3919944,+0.2627866,-0.0786091,0,0,0,0,0,0,0,0,0,0.0,0.0,0.0,0.0,0.0,+0.9052907,+0.3703297,-0.2068118,-0.0230987,0,0,0,0,0,0,0,0,0,0.0,0.0,0.0,0.0,0.0,
3.5512526,+0.7410390,+0.6404008,+0.2013900,-0.0137895,0,0,0,0,0,0,0,0,0,0.0,0.0,0.0,0.0,0.0,+0.8792747,+0.3901124,+0.2616456,-0.0789299,0,0,0,0,0,0,0,0,0,0.0,0.0,0.0,0.0,0.0,+0.9053922,+0.3697555,-0.2072947,-0.0239740,0,0,0,0,0,0,0,0,0,0.0,0.0,0.0,0.0,0.0,
3.5603861,+0.7413370,+0.6399485,+0.2017183,-0.0139690,0,0,0,0,0,0,0,0,0,0.0,0.0,0.0,0.0,0.0,+0.8814929,+0.3865374,+0.2589817,-0.0805459,0,0,0,0,0,0,0,0,0,0.0,0.0,0.0,0.0,0.0,+0.9048177,+0.3692192,-0.2105233,-0.0257289,0,0,0,0,0,0,0,0,0,0.0,0.0,0.0,0.0,0.0,
3.5654307,+0.7414283,+0.6397792,+0.2019190,-0.0139858,0,0,0,0,0,0,0,0,0,0.0,0.0,0.0,0.0,0.0,+0.8824146,+0.3849802,+0.2578645,-0.0814895,0,0,0,0,0,0,0,0,0,0.0,0.0,0.0,0.0,0.0,+0.9042411,+0.3691280,-0.2130486,-0.0265110,0,0,0,0,0,0,0,0,0,0.0,0.0,0.0,0.0,0.0,
3.5721172,+0.7415373,+0.6395981,+0.2020935,-0.0139618,0,0,0,0,0,0,0,0,0,0.0,0.0,0.0,0.0,0.0,+0.8831982,+0.3835748,+0.2570052,-0.0823386,0,0,0,0,0,0,0,0,0,0.0,0.0,0.0,0.0,0.0,+0.9036881,+0.3689703,-0.2155778,-0.0271091,0,0,0,0,0,0,0,0,0,0.0,0.0,0.0,0.0,0.0,
3.582676,+0.7416540,+0.6393016,+0.2026136,-0.0138010,0,0,0,0,0,0,0,0,0,0.0,0.0,0.0,0.0,0.0,+0.8842570,+0.3814289,+0.2559631,-0.0841699,0,0,0,0,0,0,0,0,0,0.0,0.0,0.0,0.0,0.0,+0.9032658,+0.3682599,-0.2185471,-0.0270681,0,0,0,0,0,0,0,0,0,0.0,0.0,0.0,0.0,0.0,
3.5921155,+0.7417101,+0.6391448,+0.2029119,-0.0136629,0,0,0,0,0,0,0,0,0,0.0,0.0,0.0,0.0,0.0,+0.8844763,+0.3808094,+0.2557688,-0.0852539,0,0,0,0,0,0,0,0,0,0.0,0.0,0.0,0.0,0.0,+0.9035272,+0.3675587,-0.2187264,-0.0264169,0,0,0,0,0,0,0,0,0,0.0,0.0,0.0,0.0,0.0,
3.6117435,+0.7418081,+0.6388682,+0.2034474,-0.0133219,0,0,0,0,0,0,0,0,0,0.0,0.0,0.0,0.0,0.0,+0.8843674,+0.3805405,+0.2557762,-0.0875305,0,0,0,0,0,0,0,0,0,0.0,0.0,0.0,0.0,0.0,+0.9047307,+0.3652544,-0.2178337,-0.0244951,0,0,0,0,0,0,0,0,0,0.0,0.0,0.0,0.0,0.0,
3.6133251,+0.7418168,+0.6387854,+0.2036853,-0.0131716,0,0,0,0,0,0,0,0,0,0.0,0.0,0.0,0.0,0.0,+0.8841742,+0.3807571,+0.2557186,-0.0887019,0,0,0,0,0,0,0,0,0,0.0,0.0,0.0,0.0,0.0,+0.9055558,+0.3639127,-0.2167708,-0.0233806,0,0,0,0,0,0,0,0,0,0.0,0.0,0.0,0.0,0.0,
3.6227445,+0.7417695,+0.6387122,+0.2041075,-0.0128365,0,0,0,0,0,0,0,0,0,0.0,0.0,0.0,0.0,0.0,+0.8838753,+0.3814202,+0.2548976,-0.0911614,0,0,0,0,0,0,0,0,0,0.0,0.0,0.0,0.0,0.0,+0.9073790,+0.3618646,-0.2127956,-0.0208672,0,0,0,0,0,0,0,0,0,0.0,0.0,0.0,0.0,0.0,
3.6337679,+0.7417396,+0.6387054,+0.2042488,-0.0126629,0,0,0,0,0,0,0,0,0,0.0,0.0,0.0,0.0,0.0,+0.8837801,+0.3818520,+0.2541354,-0.0923962,0,0,0,0,0,0,0,0,0,0.0,0.0,0.0,0.0,0.0,+0.9083090,+0.3607945,-0.2107592,-0.0195606,0,0,0,0,0,0,0,0,0,0.0,0.0,0.0,0.0,0.0,
3.6515274,+0.7417093,+0.6386947,+0.2043999,-0.0125316,0,0,0,0,0,0,0,0,0,0.0,0.0,0.0,0.0,0.0,+0.8838375,+0.3822878,+0.2522801,-0.0950906,0,0,0,0,0,0,0,0,0,0.0,0.0,0.0,0.0,0.0,+0.9094875,+0.3575529,-0.2113766,-0.0175560,0,0,0,0,0,0,0,0,0,0.0,0.0,0.0,0.0,0.0,
3.6531622,+0.7417382,+0.6386863,+0.2043184,-0.0125779,0,0,0,0,0,0,0,0,0,0.0,0.0,0.0,0.0,0.0,+0.8839569,+0.3821565,+0.2514766,-0.0966241,0,0,0,0,0,0,0,0,0,0.0,0.0,0.0,0.0,0.0,+0.9093992,+0.3557763,-0.2147848,-0.0168453,0,0,0,0,0,0,0,0,0,0.0,0.0,0.0,0.0,0.0,
3.6721728,+0.7417825,+0.6386760,+0.2041834,-0.0126848,0,0,0,0,0,0,0,0,0,0.0,0.0,0.0,0.0,0.0,+0.8839774,+0.3820721,+0.2508202,-0.0984580,0,0,0,0,0,0,0,0,0,0.0,0.0,0.0,0.0,0.0,+0.9090303,+0.3539986,-0.2192945,-0.0160880,0,0,0,0,0,0,0,0,0,0.0,0.0,0.0,0.0,0.0,
3.6821802,+0.7418239,+0.6387163,+0.2038889,-0.0129642,0,0,0,0,0,0,0,0,0,0.0,0.0,0.0,0.0,0.0,+0.8841494,+0.3814970,+0.2493791,-0.1027120,0,0,0,0,0,0,0,0,0,0.0,0.0,0.0,0.0,0.0,+0.9084287,+0.3497426,-0.2285899,-0.0135712,0,0,0,0,0,0,0,0,0,0.0,0.0,0.0,0.0,0.0,
3.692112,+0.7418668,+0.6387063,+0.2037540,-0.0131299,0,0,0,0,0,0,0,0,0,0.0,0.0,0.0,0.0,0.0,+0.8841977,+0.3817260,+0.2477713,-0.1053049,0,0,0,0,0,0,0,0,0,0.0,0.0,0.0,0.0,0.0,+0.9086099,+0.3471613,-0.2318987,-0.0114006,0,0,0,0,0,0,0,0,0,0.0,0.0,0.0,0.0,0.0,
3.7020573,+0.7418848,+0.6387411,+0.2035574,-0.0134615,0,0,0,0,0,0,0,0,0,0.0,0.0,0.0,0.0,0.0,+0.8838694,+0.3830800,+0.2445796,-0.1104783,0,0,0,0,0,0,0,0,0,0.0,0.0,0.0,0.0,0.0,+0.9106393,+0.3414833,-0.2325970,-0.0048987,0,0,0,0,0,0,0,0,0,0.0,0.0,0.0,0.0,0.0,
3.711923,+0.7418743,+0.6387832,+0.2034512,-0.0136462,0,0,0,0,0,0,0,0,0,0.0,0.0,0.0,0.0,0.0,+0.8836454,+0.3836775,+0.2434711,-0.1126244,0,0,0,0,0,0,0,0,0,0.0,0.0,0.0,0.0,0.0,+0.9122522,+0.3385208,-0.2306480,-0.0010762,0,0,0,0,0,0,0,0,0,0.0,0.0,0.0,0.0,0.0,
3.7221138,+0.7419405,+0.6388060,+0.2031028,-0.0141561,0,0,0,0,0,0,0,0,0,0.0,0.0,0.0,0.0,0.0,+0.8837067,+0.3839083,+0.2410313,-0.1165371,0,0,0,0,0,0,0,0,0,0.0,0.0,0.0,0.0,0.0,+0.9155723,+0.3318029,-0.2271433,+0.0063399,0,0,0,0,0,0,0,0,0,0.0,0.0,0.0,0.0,0.0,
3.7318361,+0.7420427,+0.6387665,+0.2028318,-0.0144681,0,0,0,0,0,0,0,0,0,0.0,0.0,0.0,0.0,0.0,+0.8839778,+0.3836214,+0.2396732,-0.1182147,0,0,0,0,0,0,0,0,0,0.0,0.0,0.0,0.0,0.0,+0.9170189,+0.3280026,-0.2267057,+0.0097491,0,0,0,0,0,0,0,0,0,0.0,0.0,0.0,0.0,0.0,
3.7413571,+0.7421444,+0.6387364,+0.2025300,-0.0148037,0,0,0,0,0,0,0,0,0,0.0,0.0,0.0,0.0,0.0,+0.8844020,+0.3831318,+0.2381737,-0.1196507,0,0,0,0,0,0,0,0,0,0.0,0.0,0.0,0.0,0.0,+0.9184080,+0.3240367,-0.2266178,+0.0130936,0,0,0,0,0,0,0,0,0,0.0,0.0,0.0,0.0,0.0,
3.7526819,+0.7423636,+0.6386753,+0.2018640,-0.0155271,0,0,0,0,0,0,0,0,0,0.0,0.0,0.0,0.0,0.0,+0.8856286,+0.3817608,+0.2344477,-0.1222906,0,0,0,0,0,0,0,0,0,0.0,0.0,0.0,0.0,0.0,+0.9214528,+0.3161974,-0.2248030,+0.0201872,0,0,0,0,0,0,0,0,0,0.0,0.0,0.0,0.0,0.0,
3.7619672,+0.7425054,+0.6386073,+0.2015248,-0.0159437,0,0,0,0,0,0,0,0,0,0.0,0.0,0.0,0.0,0.0,+0.8864326,+0.3808219,+0.2323078,-0.1234711,0,0,0,0,0,0,0,0,0,0.0,0.0,0.0,0.0,0.0,+0.9230286,+0.3121833,-0.2235668,+0.0240355,0,0,0,0,0,0,0,0,0,0.0,0.0,0.0,0.0,0.0,
3.7727485,+0.7428051,+0.6384650,+0.2008014,-0.0167878,0,0,0,0,0,0,0,0,0,0.0,0.0,0.0,0.0,0.0,+0.8883263,+0.3784015,+0.2279312,-0.1254432,0,0,0,0,0,0,0,0,0,0.0,0.0,0.0,0.0,0.0,+0.9255866,+0.3040086,-0.2232853,+0.0318101,0,0,0,0,0,0,0,0,0,0.0,0.0,0.0,0.0,0.0,
3.782494,+0.7429380,+0.6384028,+0.2004744,-0.0171782,0,0,0,0,0,0,0,0,0,0.0,0.0,0.0,0.0,0.0,+0.8892897,+0.3771150,+0.2258355,-0.1262794,0,0,0,0,0,0,0,0,0,0.0,0.0,0.0,0.0,0.0,+0.9268816,+0.2996297,-0.2232241,+0.0358271,0,0,0,0,0,0,0,0,0,0.0,0.0,0.0,0.0,0.0,
3.7920833,+0.7431388,+0.6383086,+0.1999756,-0.0177949,0,0,0,0,0,0,0,0,0,0.0,0.0,0.0,0.0,0.0,+0.8909177,+0.3746309,+0.2225017,-0.1281029,0,0,0,0,0,0,0,0,0,0.0,0.0,0.0,0.0,0.0,+0.9298938,+0.2900989,-0.2217677,+0.0442633,0,0,0,0,0,0,0,0,0,0.0,0.0,0.0,0.0,0.0,
3.7963937,+0.7432162,+0.6382660,+0.1998018,-0.0180397,0,0,0,0,0,0,0,0,0,0.0,0.0,0.0,0.0,0.0,+0.8915099,+0.3734596,+0.2214781,-0.1291725,0,0,0,0,0,0,0,0,0,0.0,0.0,0.0,0.0,0.0,+0.9314666,+0.2852922,-0.2205018,+0.0485518,0,0,0,0,0,0,0,0,0,0.0,0.0,0.0,0.0,0.0,
3.8123642,+0.7433429,+0.6381888,+0.1995397,-0.0184449,0,0,0,0,0,0,0,0,0,0.0,0.0,0.0,0.0,0.0,+0.8925326,+0.3711233,+0.2202818,-0.1308784,0,0,0,0,0,0,0,0,0,0.0,0.0,0.0,0.0,0.0,+0.9347550,+0.2756153,-0.2168241,+0.0570676,0,0,0,0,0,0,0,0,0,0.0,0.0,0.0,0.0,0.0,
3.8225594,+0.7434030,+0.6381384,+0.1994594,-0.0186417,0,0,0,0,0,0,0,0,0,0.0,0.0,0.0,0.0,0.0,+0.8929931,+0.3699732,+0.2199868,-0.1314874,0,0,0,0,0,0,0,0,0,0.0,0.0,0.0,0.0,0.0,+0.9366385,+0.2704998,-0.2139323,+0.0614084,0,0,0,0,0,0,0,0,0,0.0,0.0,0.0,0.0,0.0,
3.8263608,+0.7434485,+0.6381049,+0.1993835,-0.0187813,0,0,0,0,0,0,0,0,0,0.0,0.0,0.0,0.0,0.0,+0.8934976,+0.3687907,+0.2195860,-0.1320509,0,0,0,0,0,0,0,0,0,0.0,0.0,0.0,0.0,0.0,+0.9386048,+0.2650355,-0.2108938,+0.0655819,0,0,0,0,0,0,0,0,0,0.0,0.0,0.0,0.0,0.0,
3.835108,+0.7434950,+0.6380592,+0.1993353,-0.0190018,0,0,0,0,0,0,0,0,0,0.0,0.0,0.0,0.0,0.0,+0.8949837,+0.3655501,+0.2178008,-0.1339411,0,0,0,0,0,0,0,0,0,0.0,0.0,0.0,0.0,0.0,+0.9417647,+0.2543704,-0.2074301,+0.0731283,0,0,0,0,0,0,0,0,0,0.0,0.0,0.0,0.0,0.0,
3.8531225,+0.7435188,+0.6380278,+0.1993394,-0.0190852,0,0,0,0,0,0,0,0,0,0.0,0.0,0.0,0.0,0.0,+0.8959562,+0.3634717,+0.2168555,-0.1346272,0,0,0,0,0,0,0,0,0,0.0,0.0,0.0,0.0,0.0,+0.9431491,+0.2490984,-0.2062422,+0.0767072,0,0,0,0,0,0,0,0,0,0.0,0.0,0.0,0.0,0.0,
3.8610641,+0.7436062,+0.6379314,+0.1992996,-0.0193151,0,0,0,0,0,0,0,0,0,0.0,0.0,0.0,0.0,0.0,+0.8983843,+0.3583420,+0.2149924,-0.1351849,0,0,0,0,0,0,0,0,0,0.0,0.0,0.0,0.0,0.0,+0.9458607,+0.2381155,-0.2038334,+0.0842644,0,0,0,0,0,0,0,0,0,0.0,0.0,0.0,0.0,0.0,
3.8646456,+0.7436612,+0.6378902,+0.1992131,-0.0194515,0,0,0,0,0,0,0,0,0,0.0,0.0,0.0,0.0,0.0,+0.8997880,+0.3551769,+0.2140647,-0.1356735,0,0,0,0,0,0,0,0,0,0.0,0.0,0.0,0.0,0.0,+0.9470852,+0.2323408,-0.2031233,+0.0882518,0,0,0,0,0,0,0,0,0,0.0,0.0,0.0,0.0,0.0,
3.8743231,+0.7438082,+0.6377490,+0.1990754,-0.0198661,0,0,0,0,0,0,0,0,0,0.0,0.0,0.0,0.0,0.0,+0.9025987,+0.3482773,+0.2128498,-0.1367969,0,0,0,0,0,0,0,0,0,0.0,0.0,0.0,0.0,0.0,+0.9491918,+0.2201648,-0.2030776,+0.0965500,0,0,0,0,0,0,0,0,0,0.0,0.0,0.0,0.0,0.0,
3.8934336,+0.7438312,+0.6377090,+0.1991013,-0.0200242,0,0,0,0,0,0,0,0,0,0.0,0.0,0.0,0.0,0.0,+0.9037129,+0.3453826,+0.2126497,-0.1370916,0,0,0,0,0,0,0,0,0,0.0,0.0,0.0,0.0,0.0,+0.9501717,+0.2138501,-0.2031179,+0.1009205,0,0,0,0,0,0,0,0,0,0.0,0.0,0.0,0.0,0.0,
3.9035262,+0.7438124,+0.6377044,+0.1991783,-0.0201065,0,0,0,0,0,0,0,0,0,0.0,0.0,0.0,0.0,0.0,+0.9045740,+0.3428683,+0.2129444,-0.1372660,0,0,0,0,0,0,0,0,0,0.0,0.0,0.0,0.0,0.0,+0.9512010,+0.2074243,-0.2026430,+0.1054885,0,0,0,0,0,0,0,0,0,0.0,0.0,0.0,0.0,0.0,
3.9131754,+0.7437771,+0.6376736,+0.1993934,-0.0202589,0,0,0,0,0,0,0,0,0,0.0,0.0,0.0,0.0,0.0,+0.9056400,+0.3388878,+0.2137625,-0.1388415,0,0,0,0,0,0,0,0,0,0.0,0.0,0.0,0.0,0.0,+0.9534436,+0.1937477,-0.2002315,+0.1153878,0,0,0,0,0,0,0,0,0,0.0,0.0,0.0,0.0,0.0,
3.9235205,+0.7437868,+0.6376374,+0.1994566,-0.0204197,0,0,0,0,0,0,0,0,0,0.0,0.0,0.0,0.0,0.0,+0.9060166,+0.3371476,+0.2144438,-0.1395684,0,0,0,0,0,0,0,0,0,0.0,0.0,0.0,0.0,0.0,+0.9544835,+0.1864459,-0.1990920,+0.1206709,0,0,0,0,0,0,0,0,0,0.0,0.0,0.0,0.0,0.0,
3.9336919,+0.7438747,+0.6375262,+0.1994415,-0.0208307,0,0,0,0,0,0,0,0,0,0.0,0.0,0.0,0.0,0.0,+0.9067101,+0.3337330,+0.2162638,-0.1404598,0,0,0,0,0,0,0,0,0,0.0,0.0,0.0,0.0,0.0,+0.9563746,+0.1715646,-0.1965053,+0.1315246,0,0,0,0,0,0,0,0,0,0.0,0.0,0.0,0.0,0.0,
3.9478955,+0.7438790,+0.6375121,+0.1994517,-0.0210071,0,0,0,0,0,0,0,0,0,0.0,0.0,0.0,0.0,0.0,+0.9070625,+0.3318715,+0.2178786,-0.1400995,0,0,0,0,0,0,0,0,0,0.0,0.0,0.0,0.0,0.0,+0.9572578,+0.1639185,-0.1949080,+0.1371098,0,0,0,0,0,0,0,0,0,0.0,0.0,0.0,0.0,0.0,
3.9537116,+0.7438865,+0.6375246,+0.1993452,-0.0213700,0,0,0,0,0,0,0,0,0,0.0,0.0,0.0,0.0,0.0,+0.9079157,+0.3276909,+0.2208904,-0.1396969,0,0,0,0,0,0,0,0,0,0.0,0.0,0.0,0.0,0.0,+0.9589573,+0.1478229,-0.1907958,+0.1488156,0,0,0,0,0,0,0,0,0,0.0,0.0,0.0,0.0,0.0,
3.9634944,+0.7438602,+0.6375787,+0.1992514,-0.0215473,0,0,0,0,0,0,0,0,0,0.0,0.0,0.0,0.0,0.0,+0.9083033,+0.3255653,+0.2225172,-0.1395653,0,0,0,0,0,0,0,0,0,0.0,0.0,0.0,0.0,0.0,+0.9597075,+0.1394249,-0.1884082,+0.1549984,0,0,0,0,0,0,0,0,0,0.0,0.0,0.0,0.0,0.0,
3.9650414,+0.7438391,+0.6376565,+0.1990388,-0.0219352,0,0,0,0,0,0,0,0,0,0.0,0.0,0.0,0.0,0.0,+0.9086944,+0.3216209,+0.2266058,-0.1395861,0,0,0,0,0,0,0,0,0,0.0,0.0,0.0,0.0,0.0,+0.9609278,+0.1221583,-0.1829332,+0.1680195,0,0,0,0,0,0,0,0,0,0.0,0.0,0.0,0.0,0.0,
3.9751929,+0.7438239,+0.6377015,+0.1989304,-0.0221260,0,0,0,0,0,0,0,0,0,0.0,0.0,0.0,0.0,0.0,+0.9087246,+0.3197783,+0.2291518,-0.1394666,0,0,0,0,0,0,0,0,0,0.0,0.0,0.0,0.0,0.0,+0.9613094,+0.1134006,-0.1801249,+0.1748698,0,0,0,0,0,0,0,0,0,0.0,0.0,0.0,0.0,0.0,
3.9850645,+0.7438290,+0.6377230,+0.1988167,-0.0223539,0,0,0,0,0,0,0,0,0,0.0,0.0,0.0,0.0,0.0,+0.9086977,+0.3180341,+0.2315057,-0.1397428,0,0,0,0,0,0,0,0,0,0.0,0.0,0.0,0.0,0.0,+0.9614457,+0.1047258,-0.1776184,+0.1819518,0,0,0,0,0,0,0,0,0,0.0,0.0,0.0,0.0,0.0,
3.9951662,+0.7439517,+0.6376776,+0.1984481,-0.0228362,0,0,0,0,0,0,0,0,0,0.0,0.0,0.0,0.0,0.0,+0.9085870,+0.3148862,+0.2358172,-0.1403803,0,0,0,0,0,0,0,0,0,0.0,0.0,0.0,0.0,0.0,+0.9613009,+0.0874894,-0.1719893,+0.1966363,0,0,0,0,0,0,0,0,0,0.0,0.0,0.0,0.0,0.0,
4.0052267,+0.7440035,+0.6376508,+0.1983130,-0.0230701,0,0,0,0,0,0,0,0,0,0.0,0.0,0.0,0.0,0.0,+0.9086065,+0.3133431,+0.2373984,-0.1410401,0,0,0,0,0,0,0,0,0,0.0,0.0,0.0,0.0,0.0,+0.9612164,+0.0786977,-0.1679189,+0.2041394,0,0,0,0,0,0,0,0,0,0.0,0.0,0.0,0.0,0.0,
4.0240124,+0.7440761,+0.6375890,+0.1982014,-0.0233910,0,0,0,0,0,0,0,0,0,0.0,0.0,0.0,0.0,0.0,+0.9087659,+0.3107584,+0.2391566,-0.1427509,0,0,0,0,0,0,0,0,0,0.0,0.0,0.0,0.0,0.0,+0.9608580,+0.0609538,-0.1580896,+0.2191900,0,0,0,0,0,0,0,0,0,0.0,0.0,0.0,0.0,0.0,
4.0310871,+0.7441074,+0.6375420,+0.1982158,-0.0235536,0,0,0,0,0,0,0,0,0,0.0,0.0,0.0,0.0,0.0,+0.9091337,+0.3094397,+0.2391254,-0.1433251,0,0,0,0,0,0,0,0,0,0.0,0.0,0.0,0.0,0.0,+0.9605240,+0.0521729,-0.1527940,+0.2265515,0,0,0,0,0,0,0,0,0,0.0,0.0,0.0,0.0,0.0,
4.0351237,+0.7441880,+0.6374348,+0.1982113,-0.0239469,0,0,0,0,0,0,0,0,0,0.0,0.0,0.0,0.0,0.0,+0.9112483,+0.3049833,+0.2363689,-0.1440194,0,0,0,0,0,0,0,0,0,0.0,0.0,0.0,0.0,0.0,+0.9593142,+0.0354935,-0.1431200,+0.2407764,0,0,0,0,0,0,0,0,0,0.0,0.0,0.0,0.0,0.0,
4.0547703,+0.7442757,+0.6373413,+0.1981591,-0.0241402,0,0,0,0,0,0,0,0,0,0.0,0.0,0.0,0.0,0.0,+0.9127246,+0.3020710,+0.2345605,-0.1437646,0,0,0,0,0,0,0,0,0,0.0,0.0,0.0,0.0,0.0,+0.9585345,+0.0276451,-0.1383805,+0.2475849,0,0,0,0,0,0,0,0,0,0.0,0.0,0.0,0.0,0.0,
4.055845,+0.7444841,+0.6371196,+0.1980481,-0.0244748,0,0,0,0,0,0,0,0,0,0.0,0.0,0.0,0.0,0.0,+0.9158671,+0.2959244,+0.2307895,-0.1426616,0,0,0,0,0,0,0,0,0,0.0,0.0,0.0,0.0,0.0,+0.9568855,+0.0124326,-0.1277020,+0.2605913,0,0,0,0,0,0,0,0,0,0.0,0.0,0.0,0.0,0.0,
4.0651714,+0.7445385,+0.6370533,+0.1980385,-0.0246220,0,0,0,0,0,0,0,0,0,0.0,0.0,0.0,0.0,0.0,+0.9174681,+0.2928426,+0.2287893,-0.1419539,0,0,0,0,0,0,0,0,0,0.0,0.0,0.0,0.0,0.0,+0.9559931,+0.0048856,-0.1219043,+0.2668195,0,0,0,0,0,0,0,0,0,0.0,0.0,0.0,0.0,0.0,
4.0812154,+0.7446018,+0.6369566,+0.1980949,-0.0247567,0,0,0,0,0,0,0,0,0,0.0,0.0,0.0,0.0,0.0,+0.9190530,+0.2899754,+0.2265756,-0.1411366,0,0,0,0,0,0,0,0,0,0.0,0.0,0.0,0.0,0.0,+0.9549686,-0.0024094,-0.1164023,+0.2729099,0,0,0,0,0,0,0,0,0,0.0,0.0,0.0,0.0,0.0,
4.0942966,+0.7446442,+0.6368501,+0.1982572,-0.0249233,0,0,0,0,0,0,0,0,0,0.0,0.0,0.0,0.0,0.0,+0.9224451,+0.2840972,+0.2210074,-0.1397833,0,0,0,0,0,0,0,0,0,0.0,0.0,0.0,0.0,0.0,+0.9524149,-0.0155300,-0.1077954,+0.2846835,0,0,0,0,0,0,0,0,0,0.0,0.0,0.0,0.0,0.0,
4.1043143,+0.7446584,+0.6368113,+0.1983249,-0.0249477,0,0,0,0,0,0,0,0,0,0.0,0.0,0.0,0.0,0.0,+0.9237272,+0.2815193,+0.2197473,-0.1385141,0,0,0,0,0,0,0,0,0,0.0,0.0,0.0,0.0,0.0,+0.9509635,-0.0215401,-0.1041150,+0.2904555,0,0,0,0,0,0,0,0,0,0.0,0.0,0.0,0.0,0.0,
4.114516,+0.7446524,+0.6367575,+0.1985217,-0.0249388,0,0,0,0,0,0,0,0,0,0.0,0.0,0.0,0.0,0.0,+0.9256697,+0.2774930,+0.2186715,-0.1353372,0,0,0,0,0,0,0,0,0,0.0,0.0,0.0,0.0,0.0,+0.9476321,-0.0329795,-0.0980771,+0.3021370,0,0,0,0,0,0,0,0,0,0.0,0.0,0.0,0.0,0.0,
4.1252105,+0.7446193,+0.6367696,+0.1986116,-0.0249033,0,0,0,0,0,0,0,0,0,0.0,0.0,0.0,0.0,0.0,+0.9266418,+0.2759187,+0.2175359,-0.1337235,0,0,0,0,0,0,0,0,0,0.0,0.0,0.0,0.0,0.0,+0.9457011,-0.0379415,-0.0965507,+0.3080389,0,0,0,0,0,0,0,0,0,0.0,0.0,0.0,0.0,0.0,
4.1352401,+0.7445391,+0.6368424,+0.1986824,-0.0248702,0,0,0,0,0,0,0,0,0,0.0,0.0,0.0,0.0,0.0,+0.9292971,+0.2719976,+0.2127426,-0.1310140,0,0,0,0,0,0,0,0,0,0.0,0.0,0.0,0.0,0.0,+0.9417008,-0.0467994,-0.0938882,+0.3196788,0,0,0,0,0,0,0,0,0,0.0,0.0,0.0,0.0,0.0,
4.1450463,+0.7444430,+0.6369551,+0.1986802,-0.0248794,0,0,0,0,0,0,0,0,0,0.0,0.0,0.0,0.0,0.0,+0.9310183,+0.2694573,+0.2091196,-0.1298720,0,0,0,0,0,0,0,0,0,0.0,0.0,0.0,0.0,0.0,+0.9397420,-0.0512520,-0.0918541,+0.3253013,0,0,0,0,0,0,0,0,0,0.0,0.0,0.0,0.0,0.0,
4.1549933,+0.7443292,+0.6370729,+0.1987389,-0.0247991,0,0,0,0,0,0,0,0,0,0.0,0.0,0.0,0.0,0.0,+0.9324630,+0.2671404,+0.2069010,-0.1278308,0,0,0,0,0,0,0,0,0,0.0,0.0,0.0,0.0,0.0,+0.9377950,-0.0557896,-0.0894414,+0.3307996,0,0,0,0,0,0,0,0,0,0.0,0.0,0.0,0.0,0.0,
4.1645979,+0.7439920,+0.6373900,+0.1990340,-0.0244013,0,0,0,0,0,0,0,0,0,0.0,0.0,0.0,0.0,0.0,+0.9344646,+0.2634803,+0.2057531,-0.1225553,0,0,0,0,0,0,0,0,0,0.0,0.0,0.0,0.0,0.0,+0.9338661,-0.0648430,-0.0841050,+0.3414905,0,0,0,0,0,0,0,0,0,0.0,0.0,0.0,0.0,0.0,
4.1751911,+0.7437885,+0.6376091,+0.1991079,-0.0242756,0,0,0,0,0,0,0,0,0,0.0,0.0,0.0,0.0,0.0,+0.9354157,+0.2617629,+0.2053177,-0.1196758,0,0,0,0,0,0,0,0,0,0.0,0.0,0.0,0.0,0.0,+0.9318129,-0.0695017,-0.0818371,+0.3466941,0,0,0,0,0,0,0,0,0,0.0,0.0,0.0,0.0,0.0,
4.18508,+0.7434089,+0.6380634,+0.1990776,-0.0242176,0,0,0,0,0,0,0,0,0,0.0,0.0,0.0,0.0,0.0,+0.9374048,+0.2584650,+0.2040287,-0.1133152,0,0,0,0,0,0,0,0,0,0.0,0.0,0.0,0.0,0.0,+0.9275182,-0.0779832,-0.0788044,+0.3569571,0,0,0,0,0,0,0,0,0,0.0,0.0,0.0,0.0,0.0,
4.186663,+0.7432130,+0.6382696,+0.1991635,-0.0240898,0,0,0,0,0,0,0,0,0,0.0,0.0,0.0,0.0,0.0,+0.9384002,+0.2568871,+0.2033436,-0.1098429,0,0,0,0,0,0,0,0,0,0.0,0.0,0.0,0.0,0.0,+0.9253305,-0.0818793,-0.0776856,+0.3619726,0,0,0,0,0,0,0,0,0,0.0,0.0,0.0,0.0,0.0,
4.2056085,+0.7426339,+0.6388324,+0.1995915,-0.0234822,0,0,0,0,0,0,0,0,0,0.0,0.0,0.0,0.0,0.0,+0.9409251,+0.2530140,+0.1999362,-0.1032927,0,0,0,0,0,0,0,0,0,0.0,0.0,0.0,0.0,0.0,+0.9209040,-0.0886328,-0.0762431,+0.3718428,0,0,0,0,0,0,0,0,0,0.0,0.0,0.0,0.0,0.0,
4.2153752,+0.7423200,+0.6391320,+0.1998381,-0.0231532,0,0,0,0,0,0,0,0,0,0.0,0.0,0.0,0.0,0.0,+0.9419758,+0.2511836,+0.1991865,-0.0995648,0,0,0,0,0,0,0,0,0,0.0,0.0,0.0,0.0,0.0,+0.9187077,-0.0918695,-0.0752884,+0.3766534,0,0,0,0,0,0,0,0,0,0.0,0.0,0.0,0.0,0.0,
4.216901,+0.7417679,+0.6396670,+0.2002358,-0.0226305,0,0,0,0,0,0,0,0,0,0.0,0.0,0.0,0.0,0.0,+0.9436441,+0.2485069,+0.1985532,-0.0914158,0,0,0,0,0,0,0,0,0,0.0,0.0,0.0,0.0,0.0,+0.9141666,-0.0982690,-0.0736856,+0.3862811,0,0,0,0,0,0,0,0,0,0.0,0.0,0.0,0.0,0.0,
4.2265509,+0.7415404,+0.6398842,+0.2004078,-0.0224217,0,0,0,0,0,0,0,0,0,0.0,0.0,0.0,0.0,0.0,+0.9444638,+0.2472537,+0.1981038,-0.0872274,0,0,0,0,0,0,0,0,0,0.0,0.0,0.0,0.0,0.0,+0.9117282,-0.1007932,-0.0743265,+0.3912390,0,0,0,0,0,0,0,0,0,0.0,0.0,0.0,0.0,0.0,
4.2379885,+0.7412646,+0.6401525,+0.2005985,-0.0221785,0,0,0,0,0,0,0,0,0,0.0,0.0,0.0,0.0,0.0,+0.9453269,+0.2458875,+0.1975404,-0.0829103,0,0,0,0,0,0,0,0,0,0.0,0.0,0.0,0.0,0.0,+0.9092752,-0.1025709,-0.0756901,+0.3961928,0,0,0,0,0,0,0,0,0,0.0,0.0,0.0,0.0,0.0,
4.2557714,+0.7406335,+0.6407161,+0.2011832,-0.0216808,0,0,0,0,0,0,0,0,0,0.0,0.0,0.0,0.0,0.0,+0.9470428,+0.2431455,+0.1963415,-0.0737578,0,0,0,0,0,0,0,0,0,0.0,0.0,0.0,0.0,0.0,+0.9044908,-0.1055276,-0.0771858,+0.4059588,0,0,0,0,0,0,0,0,0,0.0,0.0,0.0,0.0,0.0,
4.2568086,+0.7403365,+0.6409609,+0.2015274,-0.0213937,0,0,0,0,0,0,0,0,0,0.0,0.0,0.0,0.0,0.0,+0.9478534,+0.2419084,+0.1956718,-0.0690410,0,0,0,0,0,0,0,0,0,0.0,0.0,0.0,0.0,0.0,+0.9021451,-0.1075429,-0.0765074,+0.4107497,0,0,0,0,0,0,0,0,0,0.0,0.0,0.0,0.0,0.0,
4.2665933,+0.7397069,+0.6414553,+0.2023310,-0.0207616,0,0,0,0,0,0,0,0,0,0.0,0.0,0.0,0.0,0.0,+0.9493372,+0.2395450,+0.1945789,-0.0592982,0,0,0,0,0,0,0,0,0,0.0,0.0,0.0,0.0,0.0,+0.8975317,-0.1124274,-0.0732398,+0.4200393,0,0,0,0,0,0,0,0,0,0.0,0.0,0.0,0.0,0.0,
4.278934,+0.7394410,+0.6416466,+0.2027271,-0.0204559,0,0,0,0,0,0,0,0,0,0.0,0.0,0.0,0.0,0.0,+0.9500345,+0.2383491,+0.1941076,-0.0542812,0,0,0,0,0,0,0,0,0,0.0,0.0,0.0,0.0,0.0,+0.8952398,-0.1148754,-0.0715871,+0.4245287,0,0,0,0,0,0,0,0,0,0.0,0.0,0.0,0.0,0.0,
4.2869964,+0.7389120,+0.6420402,+0.2034640,-0.0198965,0,0,0,0,0,0,0,0,0,0.0,0.0,0.0,0.0,0.0,+0.9512759,+0.2362749,+0.1931620,-0.0440094,0,0,0,0,0,0,0,0,0,0.0,0.0,0.0,0.0,0.0,+0.8908255,-0.1195138,-0.0681210,+0.4330197,0,0,0,0,0,0,0,0,0,0.0,0.0,0.0,0.0,0.0,
4.3062219,+0.7386519,+0.6422236,+0.2038559,-0.0196232,0,0,0,0,0,0,0,0,0,0.0,0.0,0.0,0.0,0.0,+0.9519146,+0.2351781,+0.1924803,-0.0387439,0,0,0,0,0,0,0,0,0,0.0,0.0,0.0,0.0,0.0,+0.8885881,-0.1215556,-0.0670426,+0.4371963,0,0,0,0,0,0,0,0,0,0.0,0.0,0.0,0.0,0.0,
4.3161118,+0.7384377,+0.6423540,+0.2042470,-0.0193462,0,0,0,0,0,0,0,0,0,0.0,0.0,0.0,0.0,0.0,+0.9525897,+0.2338504,+0.1917583,-0.0334020,0,0,0,0,0,0,0,0,0,0.0,0.0,0.0,0.0,0.0,+0.8861493,-0.1233316,-0.0669417,+0.4416419,0,0,0,0,0,0,0,0,0,0.0,0.0,0.0,0.0,0.0,
4.3258369,+0.7380317,+0.6426097,+0.2049558,-0.0188446,0,0,0,0,0,0,0,0,0,0.0,0.0,0.0,0.0,0.0,+0.9538755,+0.2307371,+0.1907131,-0.0225911,0,0,0,0,0,0,0,0,0,0.0,0.0,0.0,0.0,0.0,+0.8813315,-0.1266912,-0.0665741,+0.4503022,0,0,0,0,0,0,0,0,0,0.0,0.0,0.0,0.0,0.0,
4.3359767,+0.7378414,+0.6427150,+0.2053297,-0.0186354,0,0,0,0,0,0,0,0,0,0.0,0.0,0.0,0.0,0.0,+0.9544415,+0.2292011,+0.1903010,-0.0171386,0,0,0,0,0,0,0,0,0,0.0,0.0,0.0,0.0,0.0,+0.8789393,-0.1285008,-0.0660538,+0.4545218,0,0,0,0,0,0,0,0,0,0.0,0.0,0.0,0.0,0.0,
4.3465344,+0.7374694,+0.6428915,+0.2061558,-0.0181436,0,0,0,0,0,0,0,0,0,0.0,0.0,0.0,0.0,0.0,+0.9555647,+0.2259732,+0.1892027,-0.0058761,0,0,0,0,0,0,0,0,0,0.0,0.0,0.0,0.0,0.0,+0.8741346,-0.1317973,-0.0640206,+0.4630546,0,0,0,0,0,0,0,0,0,0.0,0.0,0.0,0.0,0.0,
4.3563546,+0.7372310,+0.6430257,+0.2066146,-0.0178558,0,0,0,0,0,0,0,0,0,0.0,0.0,0.0,0.0,0.0,+0.9561504,+0.2241693,+0.1884795,-0.0000258,0,0,0,0,0,0,0,0,0,0.0,0.0,0.0,0.0,0.0,+0.8717936,-0.1335004,-0.0623513,+0.4671894,0,0,0,0,0,0,0,0,0,0.0,0.0,0.0,0.0,0.0,
4.3665464,+0.7368408,+0.6431637,+0.2076250,-0.0172635,0,0,0,0,0,0,0,0,0,0.0,0.0,0.0,0.0,0.0,+0.9571689,+0.2202666,+0.1875477,+0.0116704,0,0,0,0,0,0,0,0,0,0.0,0.0,0.0,0.0,0.0,+0.8673065,-0.1372344,-0.0577925,+0.4749803,0,0,0,0,0,0,0,0,0,0.0,0.0,0.0,0.0,0.0,
4.3767233,+0.7366451,+0.6432125,+0.2081916,-0.0169688,0,0,0,0,0,0,0,0,0,0.0,0.0,0.0,0.0,0.0,+0.9575579,+0.2184334,+0.1872532,+0.0174927,0,0,0,0,0,0,0,0,0,0.0,0.0,0.0,0.0,0.0,+0.8650618,-0.1391582,-0.0553856,+0.4787856,0,0,0,0,0,0,0,0,0,0.0,0.0,0.0,0.0,0.0,
4.3771053,+0.7363015,+0.6432189,+0.2094408,-0.0162496,0,0,0,0,0,0,0,0,0,0.0,0.0,0.0,0.0,0.0,+0.9582090,+0.2150210,+0.1864384,+0.0290217,0,0,0,0,0,0,0,0,0,0.0,0.0,0.0,0.0,0.0,+0.8604533,-0.1426513,-0.0511265,+0.4864739,0,0,0,0,0,0,0,0,0,0.0,0.0,0.0,0.0,0.0,
4.3968186,+0.7361745,+0.6431696,+0.2100670,-0.0158675,0,0,0,0,0,0,0,0,0,0.0,0.0,0.0,0.0,0.0,+0.9586127,+0.2132104,+0.1854331,+0.0348931,0,0,0,0,0,0,0,0,0,0.0,0.0,0.0,0.0,0.0,+0.8580084,-0.1437461,-0.0504621,+0.4905224,0,0,0,0,0,0,0,0,0,0.0,0.0,0.0,0.0,0.0,
4.4064329,+0.7360356,+0.6431422,+0.2106627,-0.0155234,0,0,0,0,0,0,0,0,0,0.0,0.0,0.0,0.0,0.0,+0.9590458,+0.2109624,+0.1845713,+0.0407379,0,0,0,0,0,0,0,0,0,0.0,0.0,0.0,0.0,0.0,+0.8554112,-0.1442531,-0.0506576,+0.4948701,0,0,0,0,0,0,0,0,0,0.0,0.0,0.0,0.0,0.0,
4.4093198,+0.7357793,+0.6430945,+0.2117496,-0.0148480,0,0,0,0,0,0,0,0,0,0.0,0.0,0.0,0.0,0.0,+0.9598066,+0.2056587,+0.1835945,+0.0526213,0,0,0,0,0,0,0,0,0,0.0,0.0,0.0,0.0,0.0,+0.8503046,-0.1455089,-0.0502987,+0.5032685,0,0,0,0,0,0,0,0,0,0.0,0.0,0.0,0.0,0.0,
4.4272383,+0.7356117,+0.6430939,+0.2123585,-0.0144739,0,0,0,0,0,0,0,0,0,0.0,0.0,0.0,0.0,0.0,+0.9601185,+0.2030379,+0.1830754,+0.0585779,0,0,0,0,0,0,0,0,0,0.0,0.0,0.0,0.0,0.0,+0.8476903,-0.1464627,-0.0499029,+0.5074245,0,0,0,0,0,0,0,0,0,0.0,0.0,0.0,0.0,0.0,
4.4282982,+0.7352844,+0.6430429,+0.2136900,-0.0137595,0,0,0,0,0,0,0,0,0,0.0,0.0,0.0,0.0,0.0,+0.9605042,+0.1984093,+0.1820146,+0.0702578,0,0,0,0,0,0,0,0,0,0.0,0.0,0.0,0.0,0.0,+0.8424307,-0.1474763,-0.0491327,+0.5158945,0,0,0,0,0,0,0,0,0,0.0,0.0,0.0,0.0,0.0,
4.4379811,+0.7351494,+0.6429902,+0.2143303,-0.0134704,0,0,0,0,0,0,0,0,0,0.0,0.0,0.0,0.0,0.0,+0.9605976,+0.1964316,+0.1813713,+0.0759691,0,0,0,0,0,0,0,0,0,0.0,0.0,0.0,0.0,0.0,+0.8398870,-0.1475565,-0.0483867,+0.5200726,0,0,0,0,0,0,0,0,0,0.0,0.0,0.0,0.0,0.0,
4.4570607,+0.7348393,+0.6429529,+0.2155309,-0.0130118,0,0,0,0,0,0,0,0,0,0.0,0.0,0.0,0.0,0.0,+0.9605901,+0.1923577,+0.1806953,+0.0872611,0,0,0,0,0,0,0,0,0,0.0,0.0,0.0,0.0,0.0,+0.8349710,-0.1484013,-0.0450377,+0.5279887,0,0,0,0,0,0,0,0,0,0.0,0.0,0.0,0.0,0.0,
4.4672325,+0.7346265,+0.6429935,+0.2161512,-0.0127306,0,0,0,0,0,0,0,0,0,0.0,0.0,0.0,0.0,0.0,+0.9605024,+0.1901812,+0.1806194,+0.0929676,0,0,0,0,0,0,0,0,0,0.0,0.0,0.0,0.0,0.0,+0.8325690,-0.1494409,-0.0422898,+0.5317028,0,0,0,0,0,0,0,0,0,0.0,0.0,0.0,0.0,0.0,
4.4682535,+0.7343824,+0.6430624,+0.2167922,-0.0124245,0,0,0,0,0,0,0,0,0,0.0,0.0,0.0,0.0,0.0,+0.9603429,+0.1880635,+0.1806540,+0.0986800,0,0,0,0,0,0,0,0,0,0.0,0.0,0.0,0.0,0.0,+0.8301004,-0.1505175,-0.0396678,+0.5354478,0,0,0,0,0,0,0,0,0,0.0,0.0,0.0,0.0,0.0,
4.4780123,+0.7340451,+0.6430762,+0.2179258,-0.0117992,0,0,0,0,0,0,0,0,0,0.0,0.0,0.0,0.0,0.0,+0.9596589,+0.1843448,+0.1799751,+0.1126089,0,0,0,0,0,0,0,0,0,0.0,0.0,0.0,0.0,0.0,+0.8251530,-0.1505951,-0.0363275,+0.5432532,0,0,0,0,0,0,0,0,0,0.0,0.0,0.0,0.0,0.0,
4.4974459,+0.7338829,+0.6430880,+0.2184523,-0.0115056,0,0,0,0,0,0,0,0,0,0.0,0.0,0.0,0.0,0.0,+0.9593960,+0.1821063,+0.1797427,+0.1186980,0,0,0,0,0,0,0,0,0,0.0,0.0,0.0,0.0,0.0,+0.8227180,-0.1502648,-0.0341721,+0.5471634,0,0,0,0,0,0,0,0,0,0.0,0.0,0.0,0.0,0.0,
4.5075651,+0.7335349,+0.6431127,+0.2195775,-0.0108785,0,0,0,0,0,0,0,0,0,0.0,0.0,0.0,0.0,0.0,+0.9588906,+0.1766309,+0.1796579,+0.1305883,0,0,0,0,0,0,0,0,0,0.0,0.0,0.0,0.0,0.0,+0.8178213,-0.1521960,-0.0263466,+0.5543560,0,0,0,0,0,0,0,0,0,0.0,0.0,0.0,0.0,0.0,
4.5174866,+0.7333229,+0.6431500,+0.2201922,-0.0105322,0,0,0,0,0,0,0,0,0,0.0,0.0,0.0,0.0,0.0,+0.9584687,+0.1739583,+0.1794453,+0.1373889,0,0,0,0,0,0,0,0,0,0.0,0.0,0.0,0.0,0.0,+0.8152674,-0.1539804,-0.0215305,+0.5578222,0,0,0,0,0,0,0,0,0,0.0,0.0,0.0,0.0,0.0,
4.5246253,+0.7328632,+0.6432717,+0.2213921,-0.0099300,0,0,0,0,0,0,0,0,0,0.0,0.0,0.0,0.0,0.0,+0.9573202,+0.1691670,+0.1790016,+0.1512582,0,0,0,0,0,0,0,0,0,0.0,0.0,0.0,0.0,0.0,+0.8101711,-0.1567237,-0.0121985,+0.5647227,0,0,0,0,0,0,0,0,0,0.0,0.0,0.0,0.0,0.0,
4.5374424,+0.7326263,+0.6433465,+0.2219661,-0.0097424,0,0,0,0,0,0,0,0,0,0.0,0.0,0.0,0.0,0.0,+0.9567238,+0.1666871,+0.1790381,+0.1576079,0,0,0,0,0,0,0,0,0,0.0,0.0,0.0,0.0,0.0,+0.8076099,-0.1575017,-0.0077303,+0.5682427,0,0,0,0,0,0,0,0,0,0.0,0.0,0.0,0.0,0.0,
4.5477527,+0.7322001,+0.6434657,+0.2230333,-0.0095396,0,0,0,0,0,0,0,0,0,0.0,0.0,0.0,0.0,0.0,+0.9555514,+0.1610457,+0.1795017,+0.1696022,0,0,0,0,0,0,0,0,0,0.0,0.0,0.0,0.0,0.0,+0.8023226,-0.1596387,+0.0028238,+0.5751400,0,0,0,0,0,0,0,0,0,0.0,0.0,0.0,0.0,0.0,
4.5575959,+0.7320223,+0.6435025,+0.2235129,-0.0094746,0,0,0,0,0,0,0,0,0,0.0,0.0,0.0,0.0,0.0,+0.9548817,+0.1581111,+0.1799147,+0.1755924,0,0,0,0,0,0,0,0,0,0.0,0.0,0.0,0.0,0.0,+0.7995997,-0.1614262,+0.0094446,+0.5783533,0,0,0,0,0,0,0,0,0,0.0,0.0,0.0,0.0,0.0,
4.5678031,+0.7318515,+0.6435413,+0.2239622,-0.0094345,0,0,0,0,0,0,0,0,0,0.0,0.0,0.0,0.0,0.0,+0.9539680,+0.1553573,+0.1801588,+0.1826246,0,0,0,0,0,0,0,0,0,0.0,0.0,0.0,0.0,0.0,+0.7968758,-0.1633425,+0.0167549,+0.5814013,0,0,0,0,0,0,0,0,0,0.0,0.0,0.0,0.0,0.0,
4.5782184,+0.7316011,+0.6434965,+0.2249052,-0.0094809,0,0,0,0,0,0,0,0,0,0.0,0.0,0.0,0.0,0.0,+0.9518725,+0.1495517,+0.1808775,+0.1971200,0,0,0,0,0,0,0,0,0,0.0,0.0,0.0,0.0,0.0,+0.7913195,-0.1671935,+0.0313449,+0.5872625,0,0,0,0,0,0,0,0,0,0.0,0.0,0.0,0.0,0.0,
4.5878298,+0.7315103,+0.6434101,+0.2254470,-0.0094690,0,0,0,0,0,0,0,0,0,0.0,0.0,0.0,0.0,0.0,+0.9510142,+0.1462626,+0.1811184,+0.2034097,0,0,0,0,0,0,0,0,0,0.0,0.0,0.0,0.0,0.0,+0.7884344,-0.1690648,+0.0384021,+0.5901809,0,0,0,0,0,0,0,0,0,0.0,0.0,0.0,0.0,0.0,
4.5980915,+0.7312039,+0.6433042,+0.2267508,-0.0091965,0,0,0,0,0,0,0,0,0,0.0,0.0,0.0,0.0,0.0,+0.9491586,+0.1398501,+0.1816607,+0.2157298,0,0,0,0,0,0,0,0,0,0.0,0.0,0.0,0.0,0.0,+0.7826346,-0.1721268,+0.0515367,+0.5959861,0,0,0,0,0,0,0,0,0,0.0,0.0,0.0,0.0,0.0,
4.6092827,+0.7310584,+0.6432334,+0.2274293,-0.0089657,0,0,0,0,0,0,0,0,0,0.0,0.0,0.0,0.0,0.0,+0.9478815,+0.1370345,+0.1824475,+0.2223850,0,0,0,0,0,0,0,0,0,0.0,0.0,0.0,0.0,0.0,+0.7797551,-0.1727855,+0.0569494,+0.5990691,0,0,0,0,0,0,0,0,0,0.0,0.0,0.0,0.0,0.0,
4.6174008,+0.7306581,+0.6432038,+0.2288215,-0.0082685,0,0,0,0,0,0,0,0,0,0.0,0.0,0.0,0.0,0.0,+0.9449261,+0.1318156,+0.1837278,+0.2366077,0,0,0,0,0,0,0,0,0,0.0,0.0,0.0,0.0,0.0,+0.7740458,-0.1715227,+0.0657399,+0.6058972,0,0,0,0,0,0,0,0,0,0.0,0.0,0.0,0.0,0.0,
4.6282777,+0.7304264,+0.6432204,+0.2295286,-0.0078423,0,0,0,0,0,0,0,0,0,0.0,0.0,0.0,0.0,0.0,+0.9435886,+0.1291816,+0.1847091,+0.2425596,0,0,0,0,0,0,0,0,0,0.0,0.0,0.0,0.0,0.0,+0.7712401,-0.1705379,+0.0700589,+0.6092597,0,0,0,0,0,0,0,0,0,0.0,0.0,0.0,0.0,0.0,
4.6293549,+0.7301688,+0.6432430,+0.2302975,-0.0074308,0,0,0,0,0,0,0,0,0,0.0,0.0,0.0,0.0,0.0,+0.9421481,+0.1264720,+0.1859887,+0.2485356,0,0,0,0,0,0,0,0,0,0.0,0.0,0.0,0.0,0.0,+0.7684518,-0.1698439,+0.0745119,+0.6124400,0,0,0,0,0,0,0,0,0,0.0,0.0,0.0,0.0,0.0,
4.6391213,+0.7295635,+0.6433761,+0.2318670,-0.0064721,0,0,0,0,0,0,0,0,0,0.0,0.0,0.0,0.0,0.0,+0.9386741,+0.1219669,+0.1891429,+0.2612279,0,0,0,0,0,0,0,0,0,0.0,0.0,0.0,0.0,0.0,+0.7629490,-0.1691876,+0.0839685,+0.6182504,0,0,0,0,0,0,0,0,0,0.0,0.0,0.0,0.0,0.0,
4.658329,+0.7292350,+0.6434652,+0.2326675,-0.0058959,0,0,0,0,0,0,0,0,0,0.0,0.0,0.0,0.0,0.0,+0.9368225,+0.1200029,+0.1908941,+0.2674367,0,0,0,0,0,0,0,0,0,0.0,0.0,0.0,0.0,0.0,+0.7603124,-0.1688276,+0.0887562,+0.6209225,0,0,0,0,0,0,0,0,0,0.0,0.0,0.0,0.0,0.0,
4.660434,+0.7285494,+0.6436591,+0.2343005,-0.0046975,0,0,0,0,0,0,0,0,0,0.0,0.0,0.0,0.0,0.0,+0.9331053,+0.1160648,+0.1941723,+0.2795365,0,0,0,0,0,0,0,0,0,0.0,0.0,0.0,0.0,0.0,+0.7554777,-0.1673281,+0.0970232,+0.6259723,0,0,0,0,0,0,0,0,0,0.0,0.0,0.0,0.0,0.0,
4.6697163,+0.7282972,+0.6436750,+0.2350499,-0.0041426,0,0,0,0,0,0,0,0,0,0.0,0.0,0.0,0.0,0.0,+0.9312028,+0.1138820,+0.1956595,+0.2856736,0,0,0,0,0,0,0,0,0,0.0,0.0,0.0,0.0,0.0,+0.7533394,-0.1658661,+0.1005478,+0.6283776,0,0,0,0,0,0,0,0,0,0.0,0.0,0.0,0.0,0.0,
4.6797204,+0.7278623,+0.6436484,+0.2364807,-0.0031757,0,0,0,0,0,0,0,0,0,0.0,0.0,0.0,0.0,0.0,+0.9279305,+0.1087130,+0.1982698,+0.2963367,0,0,0,0,0,0,0,0,0,0.0,0.0,0.0,0.0,0.0,+0.7494181,-0.1620800,+0.1077862,+0.6328387,0,0,0,0,0,0,0,0,0,0.0,0.0,0.0,0.0,0.0,
4.6988145,+0.7275886,+0.6436613,+0.2372926,-0.0026863,0,0,0,0,0,0,0,0,0,0.0,0.0,0.0,0.0,0.0,+0.9261413,+0.1061479,+0.1996651,+0.3018752,0,0,0,0,0,0,0,0,0,0.0,0.0,0.0,0.0,0.0,+0.7476537,-0.1600393,+0.1113201,+0.6348301,0,0,0,0,0,0,0,0,0,0.0,0.0,0.0,0.0,0.0,
4.7086134,+0.7269395,+0.6437246,+0.2391135,-0.0015436,0,0,0,0,0,0,0,0,0,0.0,0.0,0.0,0.0,0.0,+0.9220675,+0.1018012,+0.2022721,+0.3138697,0,0,0,0,0,0,0,0,0,0.0,0.0,0.0,0.0,0.0,+0.7443140,-0.1550337,+0.1180323,+0.6387720,0,0,0,0,0,0,0,0,0,0.0,0.0,0.0,0.0,0.0,
4.7190445,+0.7265621,+0.6437711,+0.2401368,-0.0008715,0,0,0,0,0,0,0,0,0,0.0,0.0,0.0,0.0,0.0,+0.9202894,+0.0996595,+0.2029834,+0.3192698,0,0,0,0,0,0,0,0,0,0.0,0.0,0.0,0.0,0.0,+0.7427036,-0.1524791,+0.1215191,+0.6406050,0,0,0,0,0,0,0,0,0,0.0,0.0,0.0,0.0,0.0,
4.7292031,+0.7261395,+0.6438678,+0.2411549,-0.0001549,0,0,0,0,0,0,0,0,0,0.0,0.0,0.0,0.0,0.0,+0.9185063,+0.0973363,+0.2037966,+0.3245593,0,0,0,0,0,0,0,0,0,0.0,0.0,0.0,0.0,0.0,+0.7410468,-0.1503084,+0.1252440,+0.6423169,0,0,0,0,0,0,0,0,0,0.0,0.0,0.0,0.0,0.0,
4.7389092,+0.7253139,+0.6440734,+0.2430790,+0.0013181,0,0,0,0,0,0,0,0,0,0.0,0.0,0.0,0.0,0.0,+0.9148562,+0.0931730,+0.2057004,+0.3347301,0,0,0,0,0,0,0,0,0,0.0,0.0,0.0,0.0,0.0,+0.7376361,-0.1471699,+0.1336297,+0.6452728,0,0,0,0,0,0,0,0,0,0.0,0.0,0.0,0.0,0.0,
4.7488584,+0.7249266,+0.6441607,+0.2439965,+0.0020454,0,0,0,0,0,0,0,0,0,0.0,0.0,0.0,0.0,0.0,+0.9129795,+0.0914883,+0.2067727,+0.3396225,0,0,0,0,0,0,0,0,0,0.0,0.0,0.0,0.0,0.0,+0.7360711,-0.1454884,+0.1376889,+0.6465867,0,0,0,0,0,0,0,0,0,0.0,0.0,0.0,0.0,0.0,
4.7585373,+0.7239854,+0.6445303,+0.2457921,+0.0034796,0,0,0,0,0,0,0,0,0,0.0,0.0,0.0,0.0,0.0,+0.9093984,+0.0887651,+0.2084631,+0.3487956,0,0,0,0,0,0,0,0,0,0.0,0.0,0.0,0.0,0.0,+0.7334704,-0.1406361,+0.1445931,+0.6491036,0,0,0,0,0,0,0,0,0,0.0,0.0,0.0,0.0,0.0,
4.7692766,+0.7235293,+0.6447431,+0.2465664,+0.0040841,0,0,0,0,0,0,0,0,0,0.0,0.0,0.0,0.0,0.0,+0.9078268,+0.0875834,+0.2087729,+0.3529781,0,0,0,0,0,0,0,0,0,0.0,0.0,0.0,0.0,0.0,+0.7324633,-0.1376665,+0.1475347,+0.6502146,0,0,0,0,0,0,0,0,0,0.0,0.0,0.0,0.0,0.0,
4.7791729,+0.7227178,+0.6450763,+0.2480514,+0.0051096,0,0,0,0,0,0,0,0,0,0.0,0.0,0.0,0.0,0.0,+0.9048947,+0.0847932,+0.2089784,+0.3609761,0,0,0,0,0,0,0,0,0,0.0,0.0,0.0,0.0,0.0,+0.7305211,-0.1316305,+0.1535174,+0.6522613,0,0,0,0,0,0,0,0,0,0.0,0.0,0.0,0.0,0.0,
4.7897142,+0.7223517,+0.6452100,+0.2487588,+0.0055790,0,0,0,0,0,0,0,0,0,0.0,0.0,0.0,0.0,0.0,+0.9036704,+0.0832393,+0.2084202,+0.3647081,0,0,0,0,0,0,0,0,0,0.0,0.0,0.0,0.0,0.0,+0.7295911,-0.1284732,+0.1562006,+0.6532938,0,0,0,0,0,0,0,0,0,0.0,0.0,0.0,0.0,0.0,
4.7954435,+0.7220117,+0.6453207,+0.2494466,+0.0060549,0,0,0,0,0,0,0,0,0,0.0,0.0,0.0,0.0,0.0,+0.9024069,+0.0820420,+0.2072479,+0.3687536,0,0,0,0,0,0,0,0,0,0.0,0.0,0.0,0.0,0.0,+0.7289265,-0.1246260,+0.1582163,+0.6542952,0,0,0,0,0,0,0,0,0,0.0,0.0,0.0,0.0,0.0,
4.8095244,+0.7213237,+0.6455435,+0.2508295,+0.0071032,0,0,0,0,0,0,0,0,0,0.0,0.0,0.0,0.0,0.0,+0.8998377,+0.0794112,+0.2051679,+0.3766856,0,0,0,0,0,0,0,0,0,0.0,0.0,0.0,0.0,0.0,+0.7274429,-0.1168508,+0.1628654,+0.6562374,0,0,0,0,0,0,0,0,0,0.0,0.0,0.0,0.0,0.0,
4.8197333,+0.7209235,+0.6456760,+0.2516210,+0.0076649,0,0,0,0,0,0,0,0,0,0.0,0.0,0.0,0.0,0.0,+0.8985318,+0.0785293,+0.2044447,+0.3803633,0,0,0,0,0,0,0,0,0,0.0,0.0,0.0,0.0,0.0,+0.7262767,-0.1147026,+0.1664136,+0.6570175,0,0,0,0,0,0,0,0,0,0.0,0.0,0.0,0.0,0.0,
4.8208032,+0.7200342,+0.6459762,+0.2533517,+0.0088602,0,0,0,0,0,0,0,0,0,0.0,0.0,0.0,0.0,0.0,+0.8955143,+0.0773959,+0.2048604,+0.3874225,0,0,0,0,0,0,0,0,0,0.0,0.0,0.0,0.0,0.0,+0.7234985,-0.1126107,+0.1747604,+0.6582763,0,0,0,0,0,0,0,0,0,0.0,0.0,0.0,0.0,0.0,
4.8306207,+0.7195917,+0.6461255,+0.2542073,+0.0093922,0,0,0,0,0,0,0,0,0,0.0,0.0,0.0,0.0,0.0,+0.8939460,+0.0773011,+0.2055674,+0.3906753,0,0,0,0,0,0,0,0,0,0.0,0.0,0.0,0.0,0.0,+0.7223378,-0.1110783,+0.1783906,+0.6588372,0,0,0,0,0,0,0,0,0,0.0,0.0,0.0,0.0,0.0,
4.8407901,+0.7187803,+0.6463728,+0.2558316,+0.0103575,0,0,0,0,0,0,0,0,0,0.0,0.0,0.0,0.0,0.0,+0.8905701,+0.0783876,+0.2074639,+0.3971133,0,0,0,0,0,0,0,0,0,0.0,0.0,0.0,0.0,0.0,+0.7207812,-0.1066334,+0.1841592,+0.6596887,0,0,0,0,0,0,0,0,0,0.0,0.0,0.0,0.0,0.0,
4.8506777,+0.7184274,+0.6464462,+0.2566213,+0.0107190,0,0,0,0,0,0,0,0,0,0.0,0.0,0.0,0.0,0.0,+0.8888928,+0.0790152,+0.2084286,+0.4002298,0,0,0,0,0,0,0,0,0,0.0,0.0,0.0,0.0,0.0,+0.7202521,-0.1039165,+0.1867188,+0.6599805,0,0,0,0,0,0,0,0,0,0.0,0.0,0.0,0.0,0.0,
4.8611764,+0.7177293,+0.6466067,+0.2581363,+0.0114009,0,0,0,0,0,0,0,0,0,0.0,0.0,0.0,0.0,0.0,+0.8856051,+0.0794533,+0.2099582,+0.4065813,0,0,0,0,0,0,0,0,0,0.0,0.0,0.0,0.0,0.0,+0.7194253,-0.0983780,+0.1915546,+0.6603453,0,0,0,0,0,0,0,0,0,0.0,0.0,0.0,0.0,0.0,
4.8716447,+0.7174240,+0.6466594,+0.2588372,+0.0117420,0,0,0,0,0,0,0,0,0,0.0,0.0,0.0,0.0,0.0,+0.8841468,+0.0787318,+0.2102149,+0.4097505,0,0,0,0,0,0,0,0,0,0.0,0.0,0.0,0.0,0.0,+0.7190918,-0.0956320,+0.1938059,+0.6604551,0,0,0,0,0,0,0,0,0,0.0,0.0,0.0,0.0,0.0,
4.8902503,+0.7171323,+0.6466984,+0.2595303,+0.0121058,0,0,0,0,0,0,0,0,0,0.0,0.0,0.0,0.0,0.0,+0.8827584,+0.0781341,+0.2100070,+0.4129524,0,0,0,0,0,0,0,0,0,0.0,0.0,0.0,0.0,0.0,+0.7188077,-0.0927128,+0.1960898,+0.6605063,0,0,0,0,0,0,0,0,0,0.0,0.0,0.0,0.0,0.0,
4.8998935,+0.7166109,+0.6467602,+0.2607757,+0.0128909,0,0,0,0,0,0,0,0,0,0.0,0.0,0.0,0.0,0.0,+0.8800266,+0.0768003,+0.2098195,+0.4190832,0,0,0,0,0,0,0,0,0,0.0,0.0,0.0,0.0,0.0,+0.7181890,-0.0872790,+0.2007762,+0.6605118,0,0,0,0,0,0,0,0,0,0.0,0.0,0.0,0.0,0.0,
4.9065994,+0.7163264,+0.6467977,+0.2614399,+0.0133608,0,0,0,0,0,0,0,0,0,0.0,0.0,0.0,0.0,0.0,+0.8787298,+0.0768977,+0.2100553,+0.4216601,0,0,0,0,0,0,0,0,0,0.0,0.0,0.0,0.0,0.0,+0.7177976,-0.0851870,+0.2032067,+0.6604672,0,0,0,0,0,0,0,0,0,0.0,0.0,0.0,0.0,0.0,
4.9201565,+0.7155663,+0.6470045,+0.2629444,+0.0145049,0,0,0,0,0,0,0,0,0,0.0,0.0,0.0,0.0,0.0,+0.8760298,+0.0790265,+0.2109721,+0.4264005,0,0,0,0,0,0,0,0,0,0.0,0.0,0.0,0.0,0.0,+0.7170503,-0.0815380,+0.2075486,+0.6603894,0,0,0,0,0,0,0,0,0,0.0,0.0,0.0,0.0,0.0,
4.9302766,+0.7151401,+0.6471385,+0.2637375,+0.0151290,0,0,0,0,0,0,0,0,0,0.0,0.0,0.0,0.0,0.0,+0.8743832,+0.0799549,+0.2125382,+0.4288225,0,0,0,0,0,0,0,0,0,0.0,0.0,0.0,0.0,0.0,+0.7167565,-0.0798122,+0.2090161,+0.6604562,0,0,0,0,0,0,0,0,0,0.0,0.0,0.0,0.0,0.0,
4.9314282,+0.7144265,+0.6472538,+0.2653146,+0.0162927,0,0,0,0,0,0,0,0,0,0.0,0.0,0.0,0.0,0.0,+0.8710448,+0.0790288,+0.2158132,+0.4341199,0,0,0,0,0,0,0,0,0,0.0,0.0,0.0,0.0,0.0,+0.7166050,-0.0750352,+0.2103909,+0.6607440,0,0,0,0,0,0,0,0,0,0.0,0.0,0.0,0.0,0.0,
4.9507643,+0.7141362,+0.6472701,+0.2660224,+0.0168243,0,0,0,0,0,0,0,0,0,0.0,0.0,0.0,0.0,0.0,+0.8696650,+0.0793846,+0.2170956,+0.4361771,0,0,0,0,0,0,0,0,0,0.0,0.0,0.0,0.0,0.0,+0.7167839,-0.0720217,+0.2103201,+0.6609079,0,0,0,0,0,0,0,0,0,0.0,0.0,0.0,0.0,0.0,
4.9606753,+0.7135926,+0.6472981,+0.2673437,+0.0178333,0,0,0,0,0,0,0,0,0,0.0,0.0,0.0,0.0,0.0,+0.8670873,+0.0811186,+0.2194868,+0.4397784,0,0,0,0,0,0,0,0,0,0.0,0.0,0.0,0.0,0.0,+0.7171260,-0.0666023,+0.2102163,+0.6611381,0,0,0,0,0,0,0,0,0,0.0,0.0,0.0,0.0,0.0,
4.9703855,+0.7133142,+0.6473099,+0.2680188,+0.0184025,0,0,0,0,0,0,0,0,0,0.0,0.0,0.0,0.0,0.0,+0.8660638,+0.0817935,+0.2203503,+0.4412359,0,0,0,0,0,0,0,0,0,0.0,0.0,0.0,0.0,0.0,+0.7171918,-0.0646027,+0.2107205,+0.6611046,0,0,0,0,0,0,0,0,0,0.0,0.0,0.0,0.0,0.0,
4.9805762,+0.7130017,+0.6473432,+0.2687261,+0.0190183,0,0,0,0,0,0,0,0,0,0.0,0.0,0.0,0.0,0.0,+0.8651627,+0.0821402,+0.2210089,+0.4426075,0,0,0,0,0,0,0,0,0,0.0,0.0,0.0,0.0,0.0,+0.7171680,-0.0632861,+0.2116272,+0.6609682,0,0,0,0,0,0,0,0,0,0.0,0.0,0.0,0.0,0.0,
4.9903991,+0.7123346,+0.6474013,+0.2702579,+0.0202888,0,0,0,0,0,0,0,0,0,0.0,0.0,0.0,0.0,0.0,+0.8636417,+0.0830511,+0.2223120,+0.4447503,0,0,0,0,0,0,0,0,0,0.0,0.0,0.0,0.0,0.0,+0.7170932,-0.0617329,+0.2133638,+0.6606379,0,0,0,0,0,0,0,0,0,0.0,0.0,0.0,0.0,0.0,
4.9999777,+0.7120167,+0.6474018,+0.2710463,+0.0209077,0,0,0,0,0,0,0,0,0,0.0,0.0,0.0,0.0,0.0,+0.8628288,+0.0836638,+0.2232264,+0.4457541,0,0,0,0,0,0,0,0,0,0.0,0.0,0.0,0.0,0.0,+0.7172365,-0.0608321,+0.2136244,+0.6604815,0,0,0,0,0,0,0,0,0,0.0,0.0,0.0,0.0,0.0,
5.0098263,+0.7113895,+0.6474134,+0.2725658,+0.0221058,0,0,0,0,0,0,0,0,0,0.0,0.0,0.0,0.0,0.0,+0.8614904,+0.0858763,+0.2248814,+0.4470882,0,0,0,0,0,0,0,0,0,0.0,0.0,0.0,0.0,0.0,+0.7178826,-0.0582704,+0.2128222,+0.6602695,0,0,0,0,0,0,0,0,0,0.0,0.0,0.0,0.0,0.0,
5.0110687,+0.7110696,+0.6474508,+0.2732570,+0.0227599,0,0,0,0,0,0,0,0,0,0.0,0.0,0.0,0.0,0.0,+0.8609092,+0.0871476,+0.2256645,+0.4475670,0,0,0,0,0,0,0,0,0,0.0,0.0,0.0,0.0,0.0,+0.7183074,-0.0567059,+0.2118703,+0.6602499,0,0,0,0,0,0,0,0,0,0.0,0.0,0.0,0.0,0.0,
5.0225054,+0.7103043,+0.6476697,+0.2746001,+0.0242176,0,0,0,0,0,0,0,0,0,0.0,0.0,0.0,0.0,0.0,+0.8600430,+0.0894152,+0.2269338,+0.4481429,0,0,0,0,0,0,0,0,0,0.0,0.0,0.0,0.0,0.0,+0.7193658,-0.0525647,+0.2091833,+0.6602970,0,0,0,0,0,0,0,0,0,0.0,0.0,0.0,0.0,0.0,
5.0331224,+0.7098457,+0.6478652,+0.2752545,+0.0249944,0,0,0,0,0,0,0,0,0,0.0,0.0,0.0,0.0,0.0,+0.8597310,+0.0903023,+0.2275474,+0.4482526,0,0,0,0,0,0,0,0,0,0.0,0.0,0.0,0.0,0.0,+0.7199082,-0.0503745,+0.2078388,+0.6603011,0,0,0,0,0,0,0,0,0,0.0,0.0,0.0,0.0,0.0,
5.0421702,+0.7094034,+0.6480479,+0.2758988,+0.0257046,0,0,0,0,0,0,0,0,0,0.0,0.0,0.0,0.0,0.0,+0.8594682,+0.0911053,+0.2281879,+0.4482684,0,0,0,0,0,0,0,0,0,0.0,0.0,0.0,0.0,0.0,+0.7203502,-0.0484862,+0.2067787,+0.6602933,0,0,0,0,0,0,0,0,0,0.0,0.0,0.0,0.0,0.0,
5.0528113,+0.7086222,+0.6483617,+0.2770594,+0.0268315,0,0,0,0,0,0,0,0,0,0.0,0.0,0.0,0.0,0.0,+0.8590370,+0.0924422,+0.2297976,+0.4479988,0,0,0,0,0,0,0,0,0,0.0,0.0,0.0,0.0,0.0,+0.7209191,-0.0455695,+0.2056623,+0.6602289,0,0,0,0,0,0,0,0,0,0.0,0.0,0.0,0.0,0.0,
5.0616041,+0.7083437,+0.6484612,+0.2774954,+0.0272708,0,0,0,0,0,0,0,0,0,0.0,0.0,0.0,0.0,0.0,+0.8583458,+0.0932675,+0.2313861,+0.4483349,0,0,0,0,0,0,0,0,0,0.0,0.0,0.0,0.0,0.0,+0.7210149,-0.0444138,+0.2055939,+0.6602243,0,0,0,0,0,0,0,0,0,0.0,0.0,0.0,0.0,0.0,
5.080046,+0.7079722,+0.6485526,+0.2781722,+0.0278420,0,0,0,0,0,0,0,0,0,0.0,0.0,0.0,0.0,0.0,+0.8582024,+0.0945283,+0.2326779,+0.4476763,0,0,0,0,0,0,0,0,0,0.0,0.0,0.0,0.0,0.0,+0.7209078,-0.0425915,+0.2064855,+0.6601831,0,0,0,0,0,0,0,0,0,0.0,0.0,0.0,0.0,0.0,
5.0821989,+0.7078384,+0.6485702,+0.2784545,+0.0280099,0,0,0,0,0,0,0,0,0,0.0,0.0,0.0,0.0,0.0,+0.8584434,+0.0948518,+0.2327117,+0.4471276,0,0,0,0,0,0,0,0,0,0.0,0.0,0.0,0.0,0.0,+0.7208797,-0.0415266,+0.2067021,+0.6602138,0,0,0,0,0,0,0,0,0,0.0,0.0,0.0,0.0,0.0,
5.1014101,+0.7075220,+0.6486767,+0.2789991,+0.0281179,0,0,0,0,0,0,0,0,0,0.0,0.0,0.0,0.0,0.0,+0.8590695,+0.0956045,+0.2325149,+0.4458657,0,0,0,0,0,0,0,0,0,0.0,0.0,0.0,0.0,0.0,+0.7209219,-0.0384817,+0.2058882,+0.6606065,0,0,0,0,0,0,0,0,0,0.0,0.0,0.0,0.0,0.0,
5.1065152,+0.7073248,+0.6487632,+0.2793016,+0.0280800,0,0,0,0,0,0,0,0,0,0.0,0.0,0.0,0.0,0.0,+0.8590955,+0.0963067,+0.2329901,+0.4454161,0,0,0,0,0,0,0,0,0,0.0,0.0,0.0,0.0,0.0,+0.7208376,-0.0368310,+0.2052272,+0.6609980,0,0,0,0,0,0,0,0,0,0.0,0.0,0.0,0.0,0.0,
5.1125561,+0.7070724,+0.6487916,+0.2799080,+0.0277440,0,0,0,0,0,0,0,0,0,0.0,0.0,0.0,0.0,0.0,+0.8594431,+0.0979681,+0.2342187,+0.4437358,0,0,0,0,0,0,0,0,0,0.0,0.0,0.0,0.0,0.0,+0.7206711,-0.0336053,+0.2040351,+0.6617201,0,0,0,0,0,0,0,0,0,0.0,0.0,0.0,0.0,0.0,
5.1226347,+0.7070674,+0.6487134,+0.2801282,+0.0274740,0,0,0,0,0,0,0,0,0,0.0,0.0,0.0,0.0,0.0,+0.8596712,+0.0987354,+0.2350702,+0.4426723,0,0,0,0,0,0,0,0,0,0.0,0.0,0.0,0.0,0.0,+0.7207382,-0.0319033,+0.2035130,+0.6618921,0,0,0,0,0,0,0,0,0,0.0,0.0,0.0,0.0,0.0,
5.1415809,+0.7071000,+0.6486173,+0.2802954,+0.0271976,0,0,0,0,0,0,0,0,0,0.0,0.0,0.0,0.0,0.0,+0.8598238,+0.0993792,+0.2361020,+0.4416818,0,0,0,0,0,0,0,0,0,0.0,0.0,0.0,0.0,0.0,+0.7208823,-0.0303369,+0.2030739,+0.6619436,0,0,0,0,0,0,0,0,0,0.0,0.0,0.0,0.0,0.0,
5.1432195,+0.7070823,+0.6484569,+0.2807603,+0.0266825,0,0,0,0,0,0,0,0,0,0.0,0.0,0.0,0.0,0.0,+0.8598898,+0.1002901,+0.2383536,+0.4401352,0,0,0,0,0,0,0,0,0,0.0,0.0,0.0,0.0,0.0,+0.7210621,-0.0283103,+0.2031888,+0.6618024,0,0,0,0,0,0,0,0,0,0.0,0.0,0.0,0.0,0.0,
5.1605531,+0.7069516,+0.6484592,+0.2810928,+0.0265883,0,0,0,0,0,0,0,0,0,0.0,0.0,0.0,0.0,0.0,+0.8598372,+0.1005939,+0.2393782,+0.4396124,0,0,0,0,0,0,0,0,0,0.0,0.0,0.0,0.0,0.0,+0.7210568,-0.0280250,+0.2037544,+0.6616463,0,0,0,0,0,0,0,0,0,0.0,0.0,0.0,0.0,0.0,
